slno	gx	gy	gz	ax	ay	az
1	-2.854961832061069	3.030534351145038	10.923664122137405	-0.952392578125	-0.872802734375	0.153564453125
2	-3.6564885496183206	-11.534351145038167	7.038167938931298	0.1376953125	0.0078125	0.089111328125
3	1.5267175572519085	1.5114503816793894	0.6030534351145038	0.109375	-1.375	-1.18798828125
4	-0.48854961832061067	16.801526717557252	-23.00763358778626	-0.055419921875	-0.68115234375	-0.004150390625
5	-2.7938931297709924	-2.1603053435114505	-48.396946564885496	-0.556640625	-0.134033203125	0.162841796875
6	2.9618320610687023	1.8473282442748091	-0.6641221374045801	-1.38232421875	-1.951416015625	0.3056640625
7	-0.31297709923664124	0.4580152671755725	2.83206106870229	-0.833251953125	0.00048828125	-0.256103515625
8	-3.366412213740458	2.0229007633587788	2.519083969465649	-0.255859375	-0.78564453125	0.63427734375
9	-5.290076335877862	-4.870229007633588	6.351145038167939	-1.28857421875	2.0	0.1396484375
10	0.15267175572519084	4.717557251908397	-7.763358778625954	0.24169921875	-0.096435546875	-0.128662109375
11	-1.099236641221374	-11.557251908396946	-5.549618320610687	-0.15869140625	-0.81103515625	0.286865234375
12	-11.51908396946565	1.6641221374045803	-19.419847328244273	-0.97265625	2.0	0.552978515625
13	-9.541984732824428	-4.076335877862595	13.129770992366412	-0.168701171875	0.18798828125	0.017822265625
14	20.48854961832061	7.5038167938931295	7.931297709923665	0.136474609375	-0.227294921875	0.032958984375
15	-7.824427480916031	2.618320610687023	6.198473282442748	0.570556640625	-0.218017578125	0.93359375
16	-1.1068702290076335	2.366412213740458	-10.01526717557252	-0.035888671875	-0.55615234375	0.147705078125
17	2.7099236641221376	-0.11450381679389313	3.7938931297709924	-0.606689453125	-0.4794921875	-0.312255859375
18	-12.732824427480915	-20.572519083969464	-12.641221374045802	-0.970947265625	-1.902099609375	2.0
19	3.9923664122137406	-4.564885496183206	-4.908396946564886	-0.860107421875	-0.66357421875	-1.31982421875
20	17.19083969465649	-10.389312977099237	-4.580152671755725	0.47314453125	-0.004150390625	0.677490234375
21	1.717557251908397	-0.6106870229007634	0.366412213740458	-0.02783203125	-0.68212890625	0.442138671875
22	2.213740458015267	-4.305343511450381	-0.5877862595419847	-0.65087890625	-1.113525390625	0.373291015625
23	-0.5572519083969466	19.931297709923665	-32.16793893129771	-0.44140625	-0.8671875	-0.28125
24	1.8854961832061068	-4.190839694656488	10.541984732824428	0.00537109375	-0.0537109375	0.046875
25	2.427480916030534	2.236641221374046	1.6564885496183206	-0.58642578125	-0.528564453125	-0.164306640625
26	8.648854961832061	11.938931297709924	-3.8091603053435112	-0.015380859375	-0.82080078125	-1.05859375
27	0.183206106870229	-1.0076335877862594	-0.31297709923664124	-0.63232421875	-0.864501953125	-0.14306640625
28	-2.198473282442748	1.6946564885496183	-2.572519083969466	-0.5830078125	-0.62060546875	0.45458984375
29	-11.946564885496183	4.511450381679389	3.4885496183206106	-1.0166015625	-1.65625	1.126708984375
30	2.6412213740458017	-0.16793893129770993	5.1603053435114505	2.0	-1.51611328125	1.31689453125
31	2.618320610687023	5.137404580152672	8.351145038167939	0.489990234375	-0.634521484375	-0.390869140625
32	-3.8473282442748094	3.068702290076336	-0.7480916030534351	-0.03271484375	-1.16357421875	0.12060546875
33	-11.007633587786259	3.595419847328244	-9.16030534351145	-0.0390625	-1.87353515625	-0.1513671875
34	-9.198473282442748	-10.259541984732824	-6.778625954198473	-1.125	-0.687744140625	0.34375
35	-19.427480916030536	17.091603053435115	-10.51908396946565	-0.20263671875	-1.99560546875	-1.8701171875
36	-7.137404580152672	4.519083969465649	2.1374045801526718	-0.03857421875	-0.854736328125	-0.23193359375
37	1.2290076335877862	14.15267175572519	-4.259541984732825	-1.00244140625	-1.67626953125	-0.19677734375
38	9.145038167938932	8.274809160305344	-0.6183206106870229	0.088623046875	0.228515625	-0.206298828125
39	3.954198473282443	3.8473282442748094	0.17557251908396945	-0.10302734375	-1.497802734375	-0.00048828125
40	11.053435114503817	-6.022900763358779	6.251908396946565	0.660888671875	-1.072509765625	-0.70361328125
41	4.824427480916031	0.29770992366412213	11.969465648854962	-0.85693359375	-0.96875	-0.412841796875
42	-0.8702290076335878	-3.5801526717557253	-1.0	0.006103515625	-1.0283203125	0.26708984375
43	2.3282442748091605	-3.068702290076336	-6.259541984732825	-1.08544921875	-1.474365234375	0.19921875
44	-8.977099236641221	4.656488549618321	4.564885496183206	-0.080078125	-0.315185546875	1.5625
45	6.648854961832061	3.1297709923664123	3.381679389312977	-0.151611328125	2.0	-0.817626953125
46	7.33587786259542	-8.206106870229007	-6.9541984732824424	-0.3046875	-0.328857421875	-0.092041015625
47	0.8549618320610687	-3.4198473282442747	1.1526717557251909	-0.380615234375	0.141845703125	-0.3662109375
48	10.435114503816793	-0.7099236641221374	4.129770992366412	-0.4677734375	-0.49755859375	-0.285400390625
49	15.106870229007633	7.526717557251908	17.31297709923664	-0.446533203125	2.0	-1.604736328125
50	-12.419847328244275	10.267175572519085	2.3587786259541983	-0.650146484375	-1.803466796875	0.2314453125
51	2.50381679389313	-5.236641221374046	-1.1526717557251909	-0.382080078125	-1.029052734375	-0.04833984375
52	-6.458015267175573	-2.0610687022900764	-0.24427480916030533	-0.2890625	-0.623779296875	0.62744140625
53	-10.633587786259541	16.61832061068702	-7.015267175572519	-0.671875	-1.9912109375	0.545654296875
54	-6.190839694656488	2.633587786259542	-4.206106870229007	-0.50439453125	-0.837890625	0.4677734375
55	-0.7251908396946565	0.5114503816793893	-0.24427480916030533	-0.52587890625	-0.830810546875	-0.02685546875
56	-1.618320610687023	3.3053435114503817	0.6564885496183206	0.033447265625	-1.78662109375	0.0673828125
57	-19.984732824427482	1.5038167938931297	-0.4732824427480916	-0.6044921875	2.0	-0.968994140625
58	3.236641221374046	1.2748091603053435	1.1755725190839694	-0.245361328125	-0.296142578125	1.092529296875
59	-0.16793893129770993	-4.297709923664122	-0.9541984732824428	0.0341796875	-1.28125	-0.516357421875
60	10.0	-2.7251908396946565	-2.6259541984732824	-0.19873046875	-1.253173828125	-0.2529296875
61	8.908396946564885	-1.015267175572519	0.9007633587786259	-0.01318359375	-0.20751953125	-0.17333984375
62	-6.549618320610687	4.015267175572519	1.3129770992366412	-0.319091796875	-1.70361328125	0.109619140625
63	9.01526717557252	-4.091603053435114	-3.6717557251908395	-0.18359375	0.12744140625	-0.3115234375
64	1.3053435114503817	-0.26717557251908397	2.854961832061069	-0.548095703125	-0.622314453125	-0.19189453125
65	2.801526717557252	5.412213740458015	-9.977099236641221	-0.37060546875	-1.300048828125	-0.516357421875
66	2.8244274809160306	-1.786259541984733	-7.854961832061068	0.1484375	0.6806640625	-0.159423828125
67	-17.48854961832061	0.05343511450381679	6.923664122137405	-0.52587890625	-1.16357421875	0.534423828125
68	-17.106870229007633	4.862595419847328	11.450381679389313	-0.196533203125	-1.29052734375	-0.241943359375
69	-6.419847328244275	3.877862595419847	9.977099236641221	0.01416015625	0.026123046875	0.794189453125
70	1.0305343511450382	-11.19083969465649	1.534351145038168	-1.4951171875	2.0	0.736083984375
71	7.099236641221374	0.007633587786259542	1.5954198473282444	-0.450439453125	-0.90869140625	-0.48291015625
72	-27.206106870229007	18.72519083969466	4.267175572519084	-0.234619140625	-0.389892578125	-0.154052734375
73	-0.183206106870229	3.122137404580153	-1.213740458015267	-0.5517578125	-0.619384765625	-0.19482421875
74	3.816793893129771	-2.877862595419847	-10.312977099236642	0.775634765625	0.042724609375	0.11767578125
75	18.633587786259543	-7.221374045801527	0.48854961832061067	0.385009765625	-0.80517578125	-0.80859375
76	-7.702290076335878	2.2748091603053435	-0.6641221374045801	0.587158203125	-1.3310546875	1.391357421875
77	5.183206106870229	-17.61832061068702	14.595419847328245	0.22265625	-0.28173828125	-0.1181640625
78	1.9236641221374047	0.9007633587786259	0.15267175572519084	-0.044677734375	-0.968505859375	0.182861328125
79	-10.84732824427481	-3.816793893129771	-4.458015267175573	-0.5693359375	2.0	0.308349609375
80	-0.40458015267175573	7.465648854961832	14.290076335877863	-0.281982421875	-0.841796875	0.064697265625
81	5.122137404580153	1.618320610687023	7.580152671755725	-0.013916015625	-0.230224609375	-0.230712890625
82	-0.3969465648854962	-3.099236641221374	2.099236641221374	-0.4384765625	-1.175048828125	0.009033203125
83	-0.6183206106870229	0.24427480916030533	-3.5877862595419847	-0.88134765625	-0.94873046875	0.1533203125
84	20.259541984732824	-9.709923664122137	6.091603053435114	-0.37451171875	-1.470703125	-0.337158203125
85	10.335877862595419	1.251908396946565	12.13740458015267	0.42919921875	-0.849853515625	0.390380859375
86	9.183206106870228	-4.687022900763359	12.679389312977099	-0.123779296875	-0.044921875	-0.043212890625
87	-0.5114503816793893	-3.2595419847328246	-2.877862595419847	-0.261962890625	-1.239013671875	0.279541015625
88	5.343511450381679	-14.34351145038168	6.282442748091603	-0.038818359375	0.169921875	-0.038818359375
89	0.9465648854961832	4.67175572519084	4.99236641221374	-0.4296875	-0.62548828125	0.427734375
90	-8.213740458015268	11.763358778625955	11.473282442748092	-0.333251953125	-0.267822265625	0.35931396484375
91	6.480916030534351	-8.763358778625955	4.755725190839694	-0.16796875	-0.151123046875	-0.239501953125
92	3.450381679389313	2.9618320610687023	2.183206106870229	-0.261474609375	-0.068603515625	0.066162109375
93	-1.5954198473282444	-3.213740458015267	-0.4580152671755725	0.120361328125	-1.11279296875	0.061767578125
94	6.366412213740458	2.618320610687023	20.557251908396946	0.03759765625	0.24951171875	-0.35498046875
95	5.595419847328245	10.129770992366412	-6.809160305343512	0.02587890625	-0.70849609375	0.5126953125
96	-5.916030534351145	-3.1068702290076335	13.450381679389313	0.04248046875	-0.678955078125	-0.101806640625
97	-5.145038167938932	11.19083969465649	-3.312977099236641	-0.21044921875	2.0	0.54541015625
98	-11.770992366412214	-1.1450381679389312	-5.541984732824427	-0.216064453125	2.0	0.2080078125
99	4.221374045801527	-7.412213740458015	6.091603053435114	-0.25732421875	-0.745849609375	0.16845703125
100	-0.6030534351145038	0.6564885496183206	0.33587786259541985	-0.591552734375	-0.7783203125	0.04150390625
101	2.3053435114503817	-12.679389312977099	12.725190839694656	-0.161376953125	-0.015869140625	-0.263427734375
102	1.4885496183206106	7.480916030534351	-3.9770992366412212	-1.220947265625	2.0	-0.25830078125
103	-15.83206106870229	-3.404580152671756	0.44274809160305345	-0.660888671875	2.0	1.986083984375
104	-20.99236641221374	-1.0229007633587786	-12.778625954198473	0.2099609375	2.0	-0.885009765625
105	-1.0076335877862594	-2.0229007633587788	1.2213740458015268	0.0224609375	-0.9033203125	0.198486328125
106	-6.740458015267175	0.6946564885496184	-5.534351145038168	-0.5654296875	-1.266357421875	-0.7978515625
107	6.442748091603053	0.6641221374045801	11.274809160305344	-0.06103515625	0.292724609375	-0.323486328125
108	-10.786259541984732	9.610687022900763	7.66412213740458	0.10595703125	-1.048583984375	1.99993896484375
109	-4.305343511450381	3.5419847328244276	6.33587786259542	-0.53173828125	-0.38330078125	0.0390625
110	3.4122137404580153	-5.229007633587786	-4.656488549618321	-0.792724609375	-0.31201171875	0.44921875
111	7.541984732824427	-6.687022900763359	-9.755725190839694	-0.4208984375	-0.274169921875	0.26611328125
112	-2.1068702290076335	5.030534351145038	2.900763358778626	-1.3662109375	2.0	-0.41650390625
113	7.709923664122138	-9.297709923664122	7.526717557251908	-0.186767578125	-1.731689453125	0.105712890625
114	-1.465648854961832	0.1984732824427481	3.7099236641221376	0.059326171875	-1.072998046875	0.01318359375
115	3.2595419847328246	1.6641221374045803	-1.1984732824427482	-0.049560546875	-0.8876953125	0.064208984375
116	-3.618320610687023	5.847328244274809	-13.412213740458014	-0.602294921875	2.0	0.142333984375
117	17.83206106870229	-6.290076335877862	12.877862595419847	0.11572265625	0.537109375	-0.290771484375
118	5.290076335877862	0.9923664122137404	-1.5419847328244274	-1.134521484375	-0.967041015625	0.03759765625
119	-9.86259541984733	4.480916030534351	-0.7251908396946565	-0.43994140625	-1.470703125	-0.80078125
120	-9.122137404580153	21.404580152671755	15.618320610687023	-0.066162109375	2.0	-0.337158203125
121	-28.03053435114504	17.27480916030534	1.786259541984733	-0.758056640625	2.0	-0.051025390625
122	-7.1679389312977095	6.221374045801527	-2.9923664122137406	-0.33154296875	-1.40673828125	0.529296875
123	9.435114503816793	-15.267175572519085	-7.641221374045801	0.0224609375	-0.385986328125	0.105224609375
124	3.213740458015267	-1.9923664122137406	11.763358778625955	0.1279296875	0.3916015625	-0.507080078125
125	-11.572519083969466	3.16793893129771	-34.48091603053435	2.0	2.0	1.9931640625
126	1.9465648854961832	-4.763358778625954	0.31297709923664124	-0.654296875	-0.6533203125	-0.015625
127	1.3206106870229009	0.3511450381679389	-0.7480916030534351	-0.475830078125	-0.65625	-0.354736328125
128	-3.0610687022900764	0.4732824427480916	-7.251908396946565	-0.163818359375	-1.493896484375	0.08056640625
129	7.305343511450381	2.946564885496183	5.862595419847328	0.064208984375	-0.23486328125	-0.66162109375
130	8.068702290076336	-11.32824427480916	1.5648854961832062	-1.00146484375	-0.7802734375	-0.774658203125
131	-3.366412213740458	-2.7022900763358777	1.7328244274809161	0.05517578125	-1.0830078125	0.255859375
132	-7.312977099236641	-3.6793893129770994	-8.86259541984733	-0.638427734375	2.0	0.4189453125
133	-0.33587786259541985	1.1526717557251909	-2.198473282442748	-0.27099609375	-0.650146484375	-0.3251953125
134	1.2671755725190839	10.145038167938932	-18.702290076335878	-0.89453125	2.0	0.5458984375
135	-5.770992366412214	13.450381679389313	-0.007633587786259542	-1.055419921875	-1.247802734375	-0.053955078125
136	-5.694656488549619	1.1526717557251909	-0.6870229007633588	-0.134033203125	-0.5009765625	0.154296875
137	2.9083969465648853	-6.862595419847328	-16.984732824427482	-0.125244140625	-0.146728515625	0.345947265625
138	5.244274809160306	3.8244274809160306	2.8473282442748094	-0.338134765625	2.0	0.537109375
139	12.381679389312977	-14.618320610687023	0.6183206106870229	-1.109619140625	0.511962890625	1.08544921875
140	2.4427480916030535	-2.2595419847328246	-8.633587786259541	-0.013916015625	-0.865966796875	0.189208984375
141	6.0458015267175576	-5.305343511450381	6.022900763358779	0.002685546875	0.16796875	-0.286865234375
142	-13.595419847328245	0.5038167938931297	1.6030534351145038	-0.41357421875	-1.36572265625	0.156494140625
143	5.435114503816794	-16.03053435114504	-1.633587786259542	-0.315673828125	-0.426025390625	-0.3525390625
144	-15.389312977099237	-9.381679389312977	2.4732824427480917	-0.256591796875	-0.321044921875	0.05517578125
145	-1.3282442748091603	5.0534351145038165	7.687022900763359	-0.423828125	-0.02734375	0.57275390625
146	3.6259541984732824	3.267175572519084	-0.7022900763358778	-0.624267578125	-0.402099609375	-0.3896484375
147	13.083969465648854	-2.854961832061069	-8.572519083969466	-0.0390625	-0.126708984375	0.498046875
148	25.801526717557252	-14.099236641221374	-25.076335877862597	0.294921875	-0.671630859375	-0.49609375
149	-21.106870229007633	19.938931297709924	4.816793893129771	-0.74951171875	-0.449462890625	-0.067626953125
150	-1.5725190839694656	2.946564885496183	1.282442748091603	-0.034423828125	-1.001953125	0.289794921875
151	1.5419847328244274	9.465648854961833	-5.748091603053435	-0.03955078125	-1.0546875	0.293212890625
152	3.450381679389313	0.2595419847328244	19.557251908396946	0.19873046875	0.781494140625	-0.652099609375
153	2.9770992366412212	11.16030534351145	-5.717557251908397	-0.281494140625	-0.62255859375	0.263671875
154	-3.5267175572519083	-1.6412213740458015	-5.8320610687022905	-0.731689453125	-1.469482421875	0.384765625
155	-0.7480916030534351	23.068702290076335	-6.122137404580153	-0.960205078125	-0.879638671875	-0.400146484375
156	-5.0534351145038165	3.2061068702290076	-7.412213740458015	-0.6728515625	-1.5107421875	0.739990234375
157	-10.259541984732824	9.83969465648855	15.763358778625955	0.05126953125	2.0	0.060302734375
158	-7.465648854961832	-0.35877862595419846	-4.564885496183206	2.0	-0.475341796875	1.2626953125
159	-8.84732824427481	-7.625954198473282	-6.709923664122138	0.41796875	2.0	-0.597412109375
160	3.2595419847328246	-3.763358778625954	-5.648854961832061	-0.12158203125	-1.33251953125	0.215576171875
161	-0.8702290076335878	-11.129770992366412	9.725190839694656	-0.13427734375	-0.19287109375	-0.561767578125
162	-6.755725190839694	-15.687022900763358	-10.65648854961832	0.19384765625	-0.516357421875	-0.392578125
163	-25.64885496183206	26.96946564885496	-4.458015267175573	-0.467041015625	-1.2314453125	0.19482421875
164	1.702290076335878	0.9007633587786259	-1.618320610687023	-0.881103515625	-0.97216796875	-0.244384765625
165	-2.099236641221374	3.099236641221374	-6.32824427480916	-0.581298828125	-0.5859375	-0.082275390625
166	13.251908396946565	5.114503816793893	1.099236641221374	-1.36865234375	-1.380126953125	-0.13916015625
167	6.030534351145038	9.297709923664122	-17.49618320610687	-1.09814453125	0.046630859375	1.717529296875
168	12.488549618320612	-11.114503816793894	9.244274809160306	-1.8779296875	-0.17431640625	1.515380859375
169	-1.7709923664122138	5.404580152671755	-3.732824427480916	-0.283935546875	-1.065673828125	0.632568359375
170	-0.4198473282442748	1.7938931297709924	5.442748091603053	-0.19921875	-1.28466796875	0.1708984375
171	0.916030534351145	4.4961832061068705	-7.625954198473282	-0.4150390625	-0.87548828125	0.516357421875
172	7.137404580152672	-4.351145038167939	9.381679389312977	-0.722900390625	-0.36669921875	-0.18212890625
173	-2.7099236641221376	-4.083969465648855	-4.67175572519084	0.010986328125	-0.7509765625	0.004150390625
174	17.984732824427482	14.938931297709924	12.053435114503817	0.211669921875	0.084716796875	-0.265380859375
175	6.366412213740458	-3.549618320610687	-7.320610687022901	-0.55810546875	-0.677978515625	-0.199462890625
176	-6.66412213740458	4.778625954198473	1.702290076335878	-0.831298828125	-1.100341796875	-0.25927734375
177	-8.206106870229007	6.541984732824427	-10.916030534351146	-0.60546875	2.0	-0.002685546875
178	15.610687022900763	5.862595419847328	12.488549618320612	-1.337890625	0.94921875	-1.451904296875
179	-17.16030534351145	2.381679389312977	11.213740458015268	-0.78271484375	-0.779052734375	-0.248779296875
180	-7.198473282442748	2.8244274809160306	0.12213740458015267	0.06640625	-0.271728515625	-0.060546875
181	-3.4198473282442747	-5.0	7.106870229007634	-0.39892578125	-0.161376953125	0.835205078125
182	5.648854961832061	0.5267175572519084	15.870229007633588	-0.087890625	0.19091796875	-0.425048828125
183	-9.458015267175572	-5.282442748091603	7.152671755725191	0.088623046875	-0.1591796875	-0.579833984375
184	0.5267175572519084	-7.656488549618321	3.7938931297709924	-1.990966796875	0.036376953125	-0.339111328125
185	-3.6030534351145036	5.076335877862595	-3.6946564885496183	-0.668701171875	-0.8623046875	-0.219482421875
186	-0.8244274809160306	8.709923664122137	2.1297709923664123	-0.7265625	-1.853271484375	-0.26416015625
187	-5.801526717557252	3.6946564885496183	7.435114503816794	-0.166748046875	-0.82568359375	-0.320068359375
188	-5.641221374045801	2.0	-5.9541984732824424	0.3916015625	-0.564453125	0.247314453125
189	-21.923664122137403	12.83969465648855	11.854961832061068	-0.03125	-1.56591796875	-0.5986328125
190	-3.2290076335877864	-1.282442748091603	4.793893129770993	0.1953125	-1.17333984375	-0.31298828125
191	1.5038167938931297	-2.030534351145038	3.450381679389313	-0.082275390625	-0.74462890625	0.294677734375
192	7.396946564885496	7.633587786259542	0.7099236641221374	-0.0439453125	2.0	0.07568359375
193	8.969465648854962	-24.106870229007633	13.610687022900763	-0.291259765625	-0.572265625	0.195068359375
194	-3.7938931297709924	2.6946564885496183	0.3511450381679389	-0.373291015625	-1.323486328125	-0.707275390625
195	3.2213740458015265	-9.992366412213741	4.893129770992366	-0.72607421875	-0.883544921875	-0.263916015625
196	0.2595419847328244	0.45038167938931295	1.282442748091603	-0.501220703125	-0.7197265625	-0.07080078125
197	-0.916030534351145	-1.2290076335877862	3.2213740458015265	0.013916015625	-0.982666015625	0.05615234375
198	-4.396946564885496	-12.17557251908397	10.068702290076336	-0.6943359375	0.048583984375	-0.752197265625
199	12.335877862595419	-5.412213740458015	-7.343511450381679	0.41845703125	-0.1640625	-0.41943359375
200	6.526717557251908	-15.053435114503817	2.717557251908397	0.14013671875	-1.71435546875	0.3349609375
201	-0.19083969465648856	-0.6030534351145038	2.267175572519084	-0.046142578125	-0.26025390625	0.278076171875
202	-12.022900763358779	4.473282442748092	15.450381679389313	-0.15283203125	-0.838623046875	0.38818359375
203	-17.862595419847327	15.816793893129772	17.137404580152673	0.12646484375	-0.625732421875	0.9560546875
204	17.27480916030534	-13.374045801526718	-7.9465648854961835	-0.367431640625	-0.21728515625	0.35986328125
205	-9.954198473282442	-9.916030534351146	-1.3129770992366412	-1.29443359375	-1.333740234375	1.788330078125
206	7.931297709923665	-2.3587786259541983	-10.549618320610687	-0.666015625	-0.774169921875	-0.010009765625
207	5.030534351145038	-5.709923664122138	-2.267175572519084	-0.880859375	-0.365966796875	-0.13818359375
208	-3.3053435114503817	3.2290076335877864	-5.3816793893129775	1.513427734375	-1.000244140625	-1.065185546875
209	4.587786259541985	5.519083969465649	-7.709923664122138	0.0927734375	-1.86962890625	-0.769287109375
210	4.633587786259542	-2.0	8.114503816793894	0.09521484375	-0.12109375	-0.253662109375
211	1.8015267175572518	-0.9312977099236641	1.0458015267175573	-0.2099609375	-0.779541015625	0.087158203125
212	5.083969465648855	-4.267175572519084	-6.442748091603053	-0.394775390625	-1.394775390625	-0.078125
213	-6.442748091603053	19.099236641221374	32.038167938931295	-0.74169921875	-0.120849609375	-0.705810546875
214	-0.7175572519083969	-6.442748091603053	-8.335877862595419	-0.5390625	-0.462158203125	-0.05078125
215	13.473282442748092	-3.9083969465648853	-4.702290076335878	-0.635498046875	-0.757568359375	0.04638671875
216	2.49618320610687	2.4732824427480917	-1.3206106870229009	-0.988525390625	-1.46435546875	-0.0693359375
217	-2.5419847328244276	13.091603053435115	2.8931297709923665	-0.317138671875	-1.126708984375	-0.564208984375
218	5.4961832061068705	-16.137404580152673	-24.229007633587788	0.559326171875	1.1181640625	-1.55908203125
219	-1.4961832061068703	1.3740458015267176	12.183206106870228	-0.085693359375	0.316162109375	-0.490478515625
220	16.72519083969466	-6.022900763358779	15.618320610687023	-0.699462890625	-0.502685546875	0.497314453125
221	4.900763358778626	-10.770992366412214	2.1297709923664123	0.06787109375	-0.614013671875	0.2666015625
222	7.083969465648855	-5.931297709923665	6.190839694656488	-0.098876953125	-0.266845703125	-0.087646484375
223	-11.129770992366412	2.6564885496183206	-12.83206106870229	0.596923828125	2.0	0.318115234375
224	0.3053435114503817	13.633587786259541	-17.045801526717558	-0.16796875	-1.147216796875	0.258544921875
225	1.0	7.450381679389313	15.938931297709924	-1.0166015625	-0.0595703125	1.34765625
226	-1.717557251908397	4.2748091603053435	5.190839694656488	-0.71923828125	-0.83447265625	0.01171875
227	-0.6946564885496184	-3.9236641221374047	-3.877862595419847	-0.41552734375	-0.982666015625	0.3720703125
228	4.114503816793893	-3.3435114503816794	-23.786259541984734	0.467529296875	-0.887939453125	0.064208984375
229	-12.15267175572519	12.083969465648854	2.7557251908396947	0.7734375	2.0	0.315185546875
230	-8.65648854961832	2.33587786259542	-12.083969465648854	0.181640625	2.0	-0.244384765625
231	3.8244274809160306	6.251908396946565	7.267175572519084	0.0029296875	-1.5	-0.7861328125
232	-1.786259541984733	0.13740458015267176	0.13740458015267176	-0.091796875	-0.994384765625	0.2451171875
233	-1.0076335877862594	-4.770992366412214	2.5801526717557253	-0.12939453125	0.22705078125	-0.2265625
234	-2.549618320610687	-2.7557251908396947	-0.26717557251908397	-0.92626953125	-1.663330078125	-0.033935546875
235	-1.297709923664122	11.305343511450381	15.290076335877863	-0.715087890625	-1.462890625	-0.1494140625
236	-12.740458015267176	-0.17557251908396945	-12.740458015267176	-0.9599609375	-1.97509765625	0.801025390625
237	1.83206106870229	1.1068702290076335	0.9847328244274809	-0.517333984375	-0.98779296875	-0.2646484375
238	-7.351145038167939	3.564885496183206	-9.0	-0.358642578125	2.0	0.346435546875
239	-0.22900763358778625	1.1297709923664123	-8.007633587786259	-0.714111328125	-1.703125	1.657470703125
240	12.030534351145038	-13.961832061068701	6.0	0.02294921875	-0.632080078125	-0.549560546875
241	-13.969465648854962	-9.16030534351145	-0.09923664122137404	-0.0224609375	-0.27880859375	1.275146484375
242	1.5190839694656488	-1.16793893129771	-7.396946564885496	0.140380859375	-1.062744140625	0.4755859375
243	-1.5114503816793894	-3.6717557251908395	-6.7251908396946565	-0.63623046875	-1.81396484375	0.18212890625
244	-3.7557251908396947	11.022900763358779	11.061068702290076	-0.12451171875	-0.845703125	0.605712890625
245	-10.748091603053435	1.1526717557251909	11.992366412213741	-0.039306640625	-1.650634765625	-0.42919921875
246	-7.3893129770992365	-0.9694656488549618	-0.8396946564885496	-0.678955078125	-1.427978515625	1.39056396484375
247	-12.213740458015268	3.5419847328244276	-2.66412213740458	0.106689453125	-1.63037109375	0.5751953125
248	1.5038167938931297	-0.3053435114503817	3.6412213740458017	-0.287353515625	-0.18310546875	0.15185546875
249	-14.50381679389313	9.709923664122137	-10.541984732824428	-1.294677734375	2.0	0.753173828125
250	3.366412213740458	-3.595419847328244	8.83206106870229	0.05126953125	-0.27685546875	0.179443359375
251	0.3282442748091603	-9.664122137404581	-7.0458015267175576	0.080078125	-0.653564453125	1.0771484375
252	-14.755725190839694	7.1679389312977095	3.122137404580153	0.03857421875	-1.12255859375	0.13623046875
253	-1.4198473282442747	-0.8015267175572519	2.9160305343511452	-0.094970703125	-1.019287109375	0.129638671875
254	-0.183206106870229	3.5343511450381677	0.4580152671755725	-0.077392578125	-0.73876953125	-0.2578125
255	8.114503816793894	-2.381679389312977	-11.007633587786259	-0.565185546875	-0.360595703125	0.15234375
256	-6.435114503816794	13.603053435114504	-0.366412213740458	-0.830078125	-0.6484375	0.735595703125
257	1.9465648854961832	3.1908396946564888	-3.572519083969466	-0.154296875	-1.03515625	-0.21044921875
258	-4.236641221374046	5.206106870229007	-1.0610687022900764	-1.999755859375	-0.6064453125	-0.08203125
259	-4.1603053435114505	5.694656488549619	-4.3816793893129775	-0.47412109375	-0.800048828125	-0.022216796875
260	2.717557251908397	-2.435114503816794	-12.358778625954198	-1.28125	-0.080322265625	0.072998046875
261	-12.427480916030534	-1.465648854961832	-5.816793893129771	-0.31103515625	-1.291259765625	-0.9521484375
262	11.870229007633588	6.129770992366412	4.9465648854961835	-0.283203125	-0.603759765625	-1.075927734375
263	-2.564885496183206	-1.6412213740458015	-0.3053435114503817	-0.0556640625	-0.660400390625	0.181640625
264	2.366412213740458	-6.267175572519084	-18.801526717557252	-0.116943359375	-1.989013671875	0.35302734375
265	-0.9694656488549618	-17.587786259541986	-16.15267175572519	0.284912109375	-1.90673828125	0.29638671875
266	-0.816793893129771	2.7557251908396947	5.351145038167939	-0.160400390625	-0.252685546875	-0.2275390625
267	6.122137404580153	-3.351145038167939	12.961832061068701	-0.300537109375	-0.010986328125	-0.49755859375
268	-12.122137404580153	3.3587786259541983	3.877862595419847	-0.291748046875	-0.25634765625	0.93603515625
269	2.931297709923664	7.732824427480916	-9.748091603053435	-0.3818359375	-0.4853515625	-0.263916015625
270	-4.778625954198473	-3.763358778625954	0.5725190839694656	0.020751953125	2.0	0.505615234375
271	-13.259541984732824	13.312977099236642	-5.221374045801527	-0.027099609375	-1.70068359375	-0.18994140625
272	-1.16793893129771	8.793893129770993	-6.213740458015267	0.108154296875	-0.67138671875	-1.068359375
273	1.3435114503816794	-15.564885496183207	-2.0610687022900764	-0.961181640625	0.022216796875	0.779052734375
274	3.732824427480916	3.0610687022900764	4.862595419847328	0.213134765625	-0.3828125	0.033203125
275	7.1679389312977095	-5.526717557251908	-3.969465648854962	-0.135009765625	-1.173095703125	0.287353515625
276	2.549618320610687	-11.259541984732824	-4.358778625954199	-0.281494140625	-0.13720703125	-0.072265625
277	-9.80916030534351	-6.793893129770993	14.045801526717558	-0.225830078125	-0.23583984375	0.878662109375
278	-2.8396946564885495	-1.0229007633587786	-2.648854961832061	-0.631591796875	2.0	-0.035400390625
279	7.603053435114504	-7.083969465648855	3.763358778625954	-0.633544921875	-0.572509765625	-0.05078125
280	1.0305343511450382	7.656488549618321	-5.175572519083969	-0.64990234375	-0.771728515625	-0.20361328125
281	-9.717557251908397	12.511450381679388	2.885496183206107	-0.021728515625	2.0	-1.76025390625
282	-12.954198473282442	11.236641221374045	5.709923664122138	0.08642578125	-1.92529296875	-0.975341796875
283	0.7175572519083969	9.229007633587786	5.312977099236641	2.0	-1.594970703125	-0.474609375
284	-30.53435114503817	25.38167938931298	-9.694656488549619	0.016357421875	-1.635986328125	-0.163818359375
285	2.5877862595419847	-4.3816793893129775	7.916030534351145	0.183349609375	-0.33251953125	0.29833984375
286	2.5877862595419847	-6.175572519083969	5.709923664122138	-0.004150390625	-0.108642578125	-0.210693359375
287	-2.50381679389313	2.4198473282442747	6.206106870229007	0.486328125	0.57958984375	0.0234375
288	-18.641221374045802	-4.3816793893129775	-0.5572519083969466	-1.4658203125	2.0	0.00927734375
289	2.145038167938931	8.732824427480915	11.610687022900763	-0.35791015625	0.236328125	0.464599609375
290	-9.48091603053435	-6.862595419847328	2.687022900763359	-0.54638671875	-0.8427734375	-0.202392578125
291	-0.9389312977099237	-3.8244274809160306	10.206106870229007	-0.30517578125	-0.208251953125	0.090087890625
292	1.9923664122137406	1.618320610687023	0.5954198473282443	-0.258544921875	-1.3115234375	-0.359619140625
293	13.83969465648855	-1.3969465648854962	-17.48854961832061	-0.64306640625	-0.611328125	-0.270263671875
294	4.694656488549619	10.931297709923664	4.267175572519084	0.810302734375	-0.671875	-0.033935546875
295	-13.595419847328245	11.450381679389313	-17.870229007633586	0.63330078125	-0.75	-0.309814453125
296	-30.977099236641223	1.1755725190839694	-6.809160305343512	-0.44970703125	-1.48681640625	0.62646484375
297	-0.5572519083969466	-1.381679389312977	4.015267175572519	0.067138671875	-0.806640625	0.2568359375
298	14.641221374045802	-0.8396946564885496	-1.7099236641221374	-0.13916015625	-0.033447265625	-0.136474609375
299	4.900763358778626	10.572519083969466	8.755725190839694	-0.092041015625	-0.707275390625	0.427734375
300	13.404580152671755	-4.267175572519084	-0.030534351145038167	-0.29833984375	-0.062744140625	1.99993896484375
301	-0.9007633587786259	8.801526717557252	1.8854961832061068	0.7568359375	-0.23779296875	-1.171142578125
302	-9.916030534351146	9.17557251908397	4.885496183206107	-0.06982421875	-0.2177734375	-0.427978515625
303	6.076335877862595	20.244274809160306	-29.14503816793893	-0.2197265625	-1.23095703125	-0.216064453125
304	-4.6106870229007635	-5.343511450381679	-1.2595419847328244	0.1640625	-1.203857421875	0.55859375
305	12.274809160305344	-14.946564885496183	-1.8778625954198473	0.603271484375	-0.04248046875	0.535400390625
306	-5.557251908396947	21.251908396946565	-1.7557251908396947	0.609130859375	-0.533935546875	-0.76708984375
307	13.427480916030534	-1.5877862595419847	16.389312977099237	-0.189208984375	-0.659912109375	0.260498046875
308	-2.4427480916030535	-0.3893129770992366	4.8320610687022905	0.00390625	-1.074951171875	0.24755859375
309	-24.893129770992367	1.9923664122137406	-1.7251908396946565	-0.389892578125	-1.6728515625	1.90087890625
310	-1.0076335877862594	0.29770992366412213	-24.557251908396946	-0.910888671875	-1.720458984375	0.490234375
311	-13.572519083969466	-4.32824427480916	0.06870229007633588	0.5458984375	-0.37890625	0.270751953125
312	-2.5343511450381677	-0.06870229007633588	0.07633587786259542	0.15380859375	-0.88330078125	0.7666015625
313	4.221374045801527	3.5877862595419847	0.8244274809160306	-0.9775390625	2.0	-0.129150390625
314	3.2442748091603053	-0.916030534351145	1.4198473282442747	-0.63525390625	-1.427978515625	-0.221435546875
315	16.862595419847327	-5.2748091603053435	-1.3969465648854962	-1.98443603515625	-1.111328125	1.99993896484375
316	10.091603053435115	-4.396946564885496	-0.4961832061068702	-1.989990234375	-0.088623046875	1.72509765625
317	2.9923664122137406	-9.893129770992367	-10.725190839694656	-0.57861328125	-1.47021484375	-0.857421875
318	-10.801526717557252	0.3282442748091603	3.2061068702290076	0.277099609375	-0.291748046875	1.8955078125
319	-4.801526717557252	-1.4732824427480915	4.870229007633588	0.06884765625	-1.285400390625	0.232421875
320	-6.396946564885496	12.679389312977099	17.541984732824428	-0.093994140625	-0.14794921875	-0.38427734375
321	-9.038167938931299	11.099236641221374	-9.183206106870228	-1.992919921875	2.0	0.8251953125
322	12.854961832061068	17.984732824427482	-3.7709923664122136	-0.376220703125	-1.42822265625	-0.368896484375
323	5.977099236641221	3.564885496183206	6.893129770992366	-0.205078125	-0.4365234375	-0.24755859375
324	2.946564885496183	8.50381679389313	2.9236641221374047	-0.96142578125	-1.078857421875	-0.195556640625
325	10.13740458015267	-7.7251908396946565	4.0	-0.40966796875	-0.895751953125	-0.02734375
326	-8.358778625954198	14.183206106870228	-13.450381679389313	-0.74951171875	2.0	1.911865234375
327	-0.8320610687022901	-5.603053435114504	-11.34351145038168	-1.753173828125	-0.749267578125	1.8837890625
328	15.351145038167939	-8.267175572519085	4.351145038167939	0.509765625	-0.174560546875	1.948974609375
329	1.8396946564885497	-5.603053435114504	-6.480916030534351	-0.742431640625	-0.736083984375	0.1865234375
330	1.8473282442748091	-3.5267175572519083	1.916030534351145	0.07275390625	-1.044921875	0.270751953125
331	-5.633587786259542	2.5343511450381677	1.083969465648855	-0.01318359375	-0.037841796875	-0.23876953125
332	9.0	-6.33587786259542	-9.580152671755725	-1.4462890625	-1.501220703125	0.4990234375
333	16.129770992366414	-6.091603053435114	-12.633587786259541	0.134765625	-1.04150390625	-0.081298828125
334	-2.7786259541984735	-2.236641221374046	0.8549618320610687	-0.9892578125	-1.86279296875	-0.9150390625
335	6.862595419847328	-3.6717557251908395	4.114503816793893	-0.411376953125	-0.20654296875	-0.283203125
336	0.8473282442748091	16.80916030534351	-12.305343511450381	-0.473388671875	-0.56201171875	-0.07373046875
337	0.22137404580152673	-4.763358778625954	4.938931297709924	-1.212646484375	-0.6484375	-0.564697265625
338	-16.34351145038168	11.106870229007633	18.49618320610687	-0.366455078125	1.32177734375	0.38818359375
339	-1.8854961832061068	-0.7099236641221374	11.01526717557252	0.096435546875	1.012451171875	1.3916015625
340	16.72519083969466	-8.442748091603054	-7.938931297709924	0.165283203125	0.10498046875	0.296875
341	-3.0229007633587788	-5.763358778625954	3.5572519083969465	0.021728515625	-0.100341796875	0.74609375
342	-1.3053435114503817	-5.5038167938931295	8.221374045801527	0.137451171875	-0.65478515625	0.364501953125
343	2.7557251908396947	-3.7938931297709924	1.099236641221374	-0.6494140625	-1.994140625	1.390625
344	15.877862595419847	-13.251908396946565	15.396946564885496	-0.191650390625	0.282958984375	-0.108154296875
345	-2.122137404580153	-8.183206106870228	-0.4198473282442748	-0.026611328125	0.03369140625	-0.4921875
346	-22.450381679389313	-0.6259541984732825	-10.358778625954198	-1.3330078125	-1.991455078125	1.3369140625
347	-0.15267175572519084	3.030534351145038	-1.9694656488549618	-0.69921875	-1.013916015625	-0.199462890625
348	-0.8702290076335878	1.4961832061068703	2.404580152671756	-0.303955078125	-1.83740234375	-0.574951171875
349	-5.961832061068702	-2.50381679389313	-7.068702290076335	-1.80322265625	-0.866943359375	0.8486328125
350	17.6793893129771	9.274809160305344	5.320610687022901	0.721435546875	-1.641357421875	0.459228515625
351	-0.11450381679389313	11.541984732824428	-3.2061068702290076	-0.119384765625	-0.370361328125	-0.474365234375
352	0.3893129770992366	-4.763358778625954	-10.893129770992367	0.2724609375	2.0	0.794921875
353	4.732824427480916	-0.10687022900763359	-0.4198473282442748	-0.015380859375	-0.919677734375	-0.038818359375
354	0.2824427480916031	-5.3816793893129775	-8.992366412213741	0.103515625	-0.84912109375	-0.21337890625
355	2.786259541984733	0.32061068702290074	-1.0305343511450382	-0.20947265625	-0.05615234375	-0.241455078125
356	-11.687022900763358	-0.1297709923664122	-1.1145038167938932	-0.484375	-0.558349609375	-0.336669921875
357	-2.3282442748091605	0.06870229007633588	-9.351145038167939	-0.74951171875	-0.8642578125	-0.2861328125
358	2.267175572519084	-5.412213740458015	-6.916030534351145	-0.362548828125	-0.607666015625	0.201171875
359	-26.206106870229007	7.015267175572519	-6.916030534351145	-0.7666015625	2.0	1.23583984375
360	2.3435114503816794	-1.3053435114503817	9.389312977099237	1.1650390625	-1.256591796875	0.1298828125
361	5.709923664122138	-12.687022900763358	13.541984732824428	1.94970703125	-0.79296875	1.1376953125
362	9.946564885496183	-4.66412213740458	-13.49618320610687	-0.26904296875	-1.5458984375	0.0263671875
363	-2.49618320610687	1.015267175572519	1.1755725190839694	0.1015625	-0.400390625	0.0859375
364	5.221374045801527	-11.526717557251908	-3.4427480916030535	-0.04296875	-0.061767578125	-0.152099609375
365	9.01526717557252	-8.129770992366412	-3.50381679389313	-0.304443359375	-1.37890625	-0.0908203125
366	12.961832061068701	12.13740458015267	6.641221374045801	-0.158935546875	-0.140625	-0.3388671875
367	3.801526717557252	-10.564885496183207	-21.717557251908396	-1.666015625	2.0	0.225830078125
368	5.122137404580153	2.030534351145038	-5.213740458015267	-0.769775390625	-0.810546875	0.049560546875
369	4.786259541984733	-0.8931297709923665	12.86259541984733	-0.62158203125	-0.705322265625	1.482421875
370	12.419847328244275	-1.984732824427481	7.374045801526718	0.437255859375	-0.6943359375	0.229736328125
371	-0.13740458015267176	-1.916030534351145	6.709923664122138	-1.69580078125	-0.907958984375	0.8779296875
372	-36.274809160305345	19.061068702290076	27.938931297709924	2.0	2.0	1.99993896484375
373	5.786259541984733	-1.6870229007633588	2.9389312977099236	-0.324951171875	-0.967529296875	0.817626953125
374	-3.6412213740458017	-6.412213740458015	7.175572519083969	0.035400390625	-0.707275390625	0.716796875
375	-3.6106870229007635	-13.748091603053435	10.870229007633588	-0.806640625	-0.417724609375	0.032470703125
376	-2.2977099236641223	3.900763358778626	5.732824427480916	-0.15869140625	-0.020263671875	-0.17138671875
377	-18.259541984732824	14.427480916030534	0.9694656488549618	-0.166015625	2.0	0.804443359375
378	12.206106870229007	5.435114503816794	17.267175572519083	0.13818359375	0.09716796875	-0.522705078125
379	11.488549618320612	13.877862595419847	-9.786259541984732	-0.365234375	-1.0986328125	-0.57958984375
380	-0.5190839694656488	-4.99236641221374	4.145038167938932	-0.04150390625	2.0	0.345703125
381	-6.076335877862595	1.83206106870229	5.786259541984733	0.146484375	-1.43310546875	0.44970703125
382	-4.297709923664122	0.24427480916030533	4.137404580152672	-1.109375	-1.99365234375	0.52880859375
383	13.297709923664122	-5.0534351145038165	-14.473282442748092	0.57177734375	0.331787109375	0.367431640625
384	5.4961832061068705	-3.4122137404580153	-2.0076335877862594	0.326416015625	-0.5556640625	-0.09814453125
385	-5.480916030534351	-1.0381679389312977	-2.2595419847328246	-0.320068359375	2.0	0.08447265625
386	-13.183206106870228	-9.022900763358779	5.587786259541985	0.793701171875	-0.197265625	-0.031494140625
387	-0.9541984732824428	-15.770992366412214	-4.320610687022901	-0.157958984375	-0.55615234375	-0.599609375
388	5.702290076335878	2.1603053435114505	15.725190839694656	-0.200927734375	0.113037109375	-0.80078125
389	1.5954198473282444	9.13740458015267	-3.5801526717557253	-0.5859375	-0.92431640625	-0.437744140625
390	1.1908396946564885	1.1603053435114503	-9.885496183206106	0.247802734375	-1.19873046875	-0.268798828125
391	6.740458015267175	-10.335877862595419	0.1297709923664122	-1.5146484375	-1.103515625	0.71484375
392	3.0	3.931297709923664	16.15267175572519	0.47607421875	-0.851318359375	-0.265869140625
393	-3.9389312977099236	5.748091603053435	2.0763358778625953	-0.2001953125	-1.658447265625	0.0400390625
394	6.076335877862595	-3.8396946564885495	-2.114503816793893	-0.203125	-1.648681640625	-0.017578125
395	-12.145038167938932	1.6259541984732824	6.748091603053435	0.2763671875	0.10693359375	-0.130126953125
396	-12.709923664122137	-4.99236641221374	-9.274809160305344	0.238525390625	-1.574462890625	0.656982421875
397	-19.66412213740458	17.244274809160306	5.00763358778626	-0.302001953125	-1.484375	1.050048828125
398	7.412213740458015	6.854961832061068	9.587786259541986	-0.198486328125	-0.131103515625	0.55126953125
399	-0.20610687022900764	-0.9312977099236641	0.8244274809160306	-0.7373046875	-1.05615234375	0.283447265625
400	-10.48091603053435	2.6717557251908395	2.7938931297709924	-0.521240234375	-1.901123046875	0.471435546875
401	-4.748091603053435	17.27480916030534	23.717557251908396	1.5693359375	2.0	-1.299560546875
402	18.068702290076335	-0.10687022900763359	5.9465648854961835	-0.02197265625	-0.110595703125	0.03466796875
403	5.190839694656488	-25.9618320610687	8.786259541984732	0.564453125	-1.74462890625	0.234375
404	-10.412213740458014	5.061068702290076	-9.564885496183207	-0.303955078125	-1.74853515625	0.208251953125
405	1.1526717557251909	-13.099236641221374	5.8320610687022905	-0.03759765625	-1.14892578125	0.358642578125
406	-37.2442748091603	17.458015267175572	26.137404580152673	-0.375732421875	-0.393798828125	-0.61279296875
407	10.374045801526718	3.16793893129771	-8.770992366412214	-0.34912109375	-0.73046875	0.09130859375
408	-11.442748091603054	4.351145038167939	-2.564885496183206	-0.14013671875	-1.110595703125	1.32275390625
409	6.7251908396946565	1.2748091603053435	-4.106870229007634	0.101806640625	-0.059814453125	0.048828125
410	0.5267175572519084	-0.8396946564885496	-1.3282442748091603	-0.607666015625	-0.994140625	0.082763671875
411	-18.6793893129771	-1.0763358778625953	-4.351145038167939	-0.87158203125	-1.997802734375	-0.400390625
412	38.43511450381679	-9.221374045801527	12.641221374045802	1.99365234375	2.0	-0.850341796875
413	6.374045801526718	-5.152671755725191	9.511450381679388	0.19482421875	-0.991943359375	0.777587890625
414	3.7938931297709924	30.16030534351145	22.458015267175572	-0.883056640625	-0.405517578125	-0.13623046875
415	4.3816793893129775	-3.900763358778626	12.793893129770993	0.1494140625	0.05810546875	-0.139404296875
416	-1.6412213740458015	1.534351145038168	6.603053435114504	-0.1005859375	-0.991455078125	0.306884765625
417	4.229007633587786	-0.4732824427480916	-7.572519083969466	-0.089111328125	-0.590087890625	-0.06689453125
418	-4.847328244274809	13.0	9.206106870229007	-0.970947265625	-1.99267578125	-0.72509765625
419	-22.82442748091603	-17.99236641221374	-19.717557251908396	-1.984619140625	-1.062744140625	0.903564453125
420	-12.82442748091603	2.954198473282443	9.84732824427481	-0.21337890625	-0.558837890625	-0.48974609375
421	-0.4198473282442748	-7.8320610687022905	3.33587786259542	-0.1650390625	-0.8486328125	-0.324462890625
422	2.4732824427480917	6.1603053435114505	-6.9541984732824424	-0.7333984375	-0.94482421875	-0.03369140625
423	-5.068702290076335	-6.916030534351145	-3.404580152671756	-0.6171875	-0.3828125	-0.67822265625
424	-55.88549618320611	57.00763358778626	71.45801526717557	-0.901123046875	2.0	-0.966796875
425	12.900763358778626	-9.778625954198473	-8.580152671755725	-0.56689453125	2.0	1.014404296875
426	3.282442748091603	4.786259541984733	8.045801526717558	-0.132080078125	2.0	0.069580078125
427	-7.305343511450381	11.618320610687023	24.99236641221374	-1.0947265625	-0.429931640625	-1.36962890625
428	13.229007633587786	-17.82442748091603	-10.763358778625955	-0.1455078125	-0.82080078125	0.65869140625
429	5.763358778625954	-3.0839694656488548	-9.145038167938932	0.042236328125	-1.080078125	0.040283203125
430	-13.603053435114504	28.80916030534351	12.259541984732824	0.20458984375	2.0	0.2099609375
431	4.67175572519084	-4.427480916030534	-7.015267175572519	-0.54248046875	-0.8984375	-0.097412109375
432	15.34351145038168	6.862595419847328	-3.099236641221374	-0.202880859375	2.0	-0.54052734375
433	2.0229007633587788	4.6183206106870225	-4.969465648854962	-1.832275390625	-1.292236328125	0.330322265625
434	5.465648854961832	4.6183206106870225	-7.816793893129771	-0.633544921875	-0.672119140625	0.214599609375
435	7.480916030534351	-3.0076335877862594	-6.320610687022901	-0.546875	-0.90576171875	0.0986328125
436	18.671755725190838	-14.595419847328245	-0.732824427480916	0.10595703125	-0.31787109375	0.319091796875
437	-25.99236641221374	-5.9541984732824424	6.6183206106870225	0.7880859375	2.0	-0.834228515625
438	-14.396946564885496	14.335877862595419	1.4961832061068703	0.30419921875	-0.898681640625	-0.28173828125
439	-0.8396946564885496	1.3358778625954197	5.541984732824427	0.22314453125	-0.95556640625	-0.235595703125
440	0.9770992366412213	-1.6641221374045803	1.099236641221374	0.064208984375	-1.06396484375	-0.00830078125
441	17.740458015267176	-13.374045801526718	5.862595419847328	0.11669921875	-0.162109375	-0.603515625
442	-2.0916030534351147	-0.37404580152671757	20.0381679389313	-0.161376953125	0.5166015625	-0.173583984375
443	3.9236641221374047	-0.9389312977099237	15.076335877862595	0.20654296875	0.103759765625	-0.132080078125
444	6.236641221374046	-5.511450381679389	-6.442748091603053	-0.55810546875	-0.059814453125	-0.55810546875
445	2.763358778625954	4.1603053435114505	-5.938931297709924	-0.5869140625	-0.815673828125	-0.142578125
446	3.2213740458015265	-11.458015267175572	0.366412213740458	-0.923095703125	-0.18701171875	0.3857421875
447	-26.03053435114504	10.786259541984732	-4.091603053435114	-1.302734375	2.0	1.527587890625
448	-16.564885496183205	3.0916030534351147	-9.251908396946565	0.207275390625	2.0	0.081298828125
449	-16.82442748091603	10.076335877862595	-8.099236641221374	-0.712646484375	2.0	1.537353515625
450	2.33587786259542	-0.816793893129771	1.748091603053435	0.23388671875	-1.2685546875	0.072265625
451	-3.9618320610687023	-6.106870229007634	7.091603053435114	-0.69873046875	2.0	-0.045166015625
452	3.633587786259542	-3.6946564885496183	6.419847328244275	0.06494140625	0.047607421875	-0.233154296875
453	14.053435114503817	-4.793893129770993	4.595419847328245	-0.06884765625	-0.00048828125	-0.12548828125
454	-9.083969465648854	-21.954198473282442	-14.511450381679388	-0.586669921875	-0.55078125	0.487548828125
455	12.694656488549619	-8.068702290076336	8.648854961832061	-0.3642578125	-0.55224609375	-0.959228515625
456	0.4351145038167939	-1.1145038167938932	-0.732824427480916	-0.73388671875	-1.418212890625	0.265869140625
457	0.6564885496183206	6.488549618320611	-4.732824427480916	-0.0673828125	-0.356689453125	-0.21875
458	10.801526717557252	-14.183206106870228	1.1755725190839694	-0.716552734375	-0.5712890625	0.75390625
459	20.053435114503817	4.4961832061068705	-2.7938931297709924	0.857177734375	2.0	0.13671875
460	-3.7099236641221376	-0.16030534351145037	13.473282442748092	-0.1875	-1.0068359375	-0.5546875
461	0.03816793893129771	3.4427480916030535	6.450381679389313	-0.4638671875	-0.84033203125	0.451904296875
462	1.9541984732824427	2.4122137404580153	-3.2900763358778624	-0.09619140625	-1.151611328125	0.22021484375
463	9.106870229007633	-8.290076335877863	7.748091603053435	-0.146728515625	-0.730712890625	0.220703125
464	-3.6564885496183206	1.0	5.763358778625954	-0.169189453125	-0.150634765625	-0.34423828125
465	-22.770992366412212	16.572519083969464	5.8396946564885495	-0.34130859375	2.0	0.30517578125
466	11.091603053435115	5.419847328244275	1.8015267175572518	-0.218994140625	-0.126953125	-0.3701171875
467	-2.236641221374046	-1.2213740458015268	-9.0	-0.986083984375	-1.07666015625	0.070068359375
468	-2.5343511450381677	-4.870229007633588	-2.5267175572519083	-0.634765625	-0.852783203125	0.13232421875
469	-14.587786259541986	10.32824427480916	4.419847328244275	0.119873046875	2.0	-0.503173828125
470	8.404580152671755	-5.778625954198473	-9.885496183206106	0.574462890625	0.61279296875	-0.802978515625
471	14.923664122137405	-15.580152671755725	-33.48854961832061	1.64990234375	-0.687255859375	1.963623046875
472	-3.366412213740458	8.427480916030534	10.007633587786259	0.4267578125	-0.744384765625	0.989990234375
473	26.419847328244273	-15.641221374045802	4.961832061068702	0.2783203125	-0.79443359375	-0.547119140625
474	-4.412213740458015	2.6106870229007635	0.5190839694656488	-0.079833984375	-0.387939453125	0.07421875
475	-16.99236641221374	-6.6106870229007635	28.53435114503817	-0.344970703125	0.02294921875	1.9990234375
476	-2.0	-13.854961832061068	14.687022900763358	-0.5283203125	-0.779296875	-0.42138671875
477	-25.068702290076335	18.267175572519083	-1.7786259541984732	-0.609375	-1.96630859375	-0.5634765625
478	-0.09923664122137404	0.03816793893129771	-5.244274809160306	-0.25244140625	-1.214599609375	-0.225830078125
479	10.885496183206106	9.366412213740459	-4.961832061068702	-0.560546875	-0.773681640625	-0.31640625
480	3.122137404580153	3.480916030534351	7.648854961832061	-0.539306640625	-1.278076171875	0.499267578125
481	16.259541984732824	-7.687022900763359	5.129770992366412	-0.57080078125	-0.212158203125	-0.396484375
482	-4.442748091603053	-1.5572519083969465	14.961832061068701	0.374267578125	0.100830078125	-0.3984375
483	-8.389312977099237	27.49618320610687	11.961832061068701	1.53118896484375	-0.792724609375	0.15478515625
484	21.358778625954198	-6.66412213740458	0.21374045801526717	-0.20263671875	-0.67236328125	0.12255859375
485	-0.32061068702290074	-8.725190839694656	2.7022900763358777	0.15576171875	-0.3017578125	0.069091796875
486	-8.19083969465649	-1.984732824427481	-11.961832061068701	-0.970703125	2.0	0.309814453125
487	2.312977099236641	-5.213740458015267	0.4122137404580153	-1.42626953125	-0.3583984375	1.64990234375
488	-1.5954198473282444	-3.183206106870229	1.9770992366412214	-0.103515625	-0.49267578125	-0.4833984375
489	-17.450381679389313	8.50381679389313	12.923664122137405	-0.693115234375	-0.532470703125	0.14208984375
490	0.46564885496183206	10.526717557251908	-1.0687022900763359	-1.030517578125	-0.81640625	-0.04638671875
491	-3.801526717557252	-5.793893129770993	-5.175572519083969	-0.310546875	-0.76708984375	0.13037109375
492	-1.9236641221374047	-6.320610687022901	-0.0916030534351145	-0.95263671875	0.730712890625	-0.734375
493	5.99236641221374	-9.083969465648854	-14.916030534351146	1.25830078125	-0.142822265625	-0.15380859375
494	-22.862595419847327	9.458015267175572	8.740458015267176	0.282958984375	-1.29638671875	0.553955078125
495	-8.221374045801527	-1.7709923664122138	4.793893129770993	-0.08984375	-0.730712890625	0.7236328125
496	-1.0687022900763359	-2.6793893129770994	6.816793893129771	0.05908203125	-1.22265625	0.330322265625
497	-15.870229007633588	9.908396946564885	-3.6412213740458017	-0.431640625	-1.296875	0.143798828125
498	-3.030534351145038	-2.9770992366412212	2.5877862595419847	0.220703125	0.61376953125	-0.963134765625
499	15.351145038167939	-19.81679389312977	-23.12213740458015	0.698974609375	-0.784423828125	1.348388671875
500	-13.312977099236642	17.557251908396946	-10.725190839694656	-0.6865234375	-1.98974609375	1.99993896484375
501	-9.580152671755725	5.2748091603053435	-3.122137404580153	-1.63037109375	-0.956298828125	1.99365234375
502	-0.648854961832061	4.320610687022901	-4.847328244274809	-0.309814453125	-0.689453125	-0.2802734375
503	9.511450381679388	-5.8320610687022905	8.259541984732824	-0.70751953125	-0.81005859375	-1.075439453125
504	14.34351145038168	-3.427480916030534	1.5572519083969465	-0.451416015625	0.22119140625	0.3271484375
505	3.984732824427481	12.98473282442748	10.641221374045802	-0.437744140625	-1.546630859375	0.24072265625
506	-7.541984732824427	5.656488549618321	-12.213740458015268	-0.13525390625	-1.019775390625	0.91015625
507	-7.595419847328245	2.7480916030534353	11.931297709923664	-0.193359375	-0.74755859375	1.044189453125
508	-0.2824427480916031	-8.786259541984732	4.435114503816794	0.156982421875	-0.09814453125	0.0244140625
509	-2.5572519083969465	-7.145038167938932	-7.404580152671755	-0.102294921875	2.0	1.99993896484375
510	15.114503816793894	5.526717557251908	14.442748091603054	-0.045166015625	0.116943359375	-0.277099609375
511	15.618320610687023	8.931297709923664	1.7328244274809161	-0.5576171875	-0.67529296875	0.5087890625
512	14.320610687022901	7.32824427480916	4.129770992366412	-0.189453125	-0.22021484375	-0.337646484375
513	0.5343511450381679	0.2748091603053435	-1.3129770992366412	-0.4169921875	-0.78662109375	0.031494140625
514	9.65648854961832	0.2366412213740458	1.1068702290076335	-0.679931640625	-0.830078125	0.9697265625
515	-6.633587786259542	2.4122137404580153	4.931297709923665	-0.67041015625	-0.047607421875	-0.511474609375
516	-35.3206106870229	19.30534351145038	5.076335877862595	-0.325927734375	2.0	0.184814453125
517	-40.595419847328245	-0.2748091603053435	-6.572519083969466	-1.00927734375	-1.627685546875	1.85931396484375
518	-2.0229007633587788	-2.198473282442748	13.01526717557252	-0.287353515625	-1.633056640625	0.31298828125
519	-6.358778625954199	-3.3435114503816794	-1.4198473282442747	-0.02978515625	-1.139404296875	0.333251953125
520	-4.4961832061068705	6.1603053435114505	7.969465648854962	-0.165771484375	-1.021728515625	-0.0654296875
521	-12.564885496183207	10.068702290076336	2.854961832061069	-0.03076171875	-0.16455078125	0.052978515625
522	7.412213740458015	12.366412213740459	-6.7251908396946565	-0.175048828125	-1.07763671875	-0.485107421875
523	-8.65648854961832	5.862595419847328	9.778625954198473	0.1650390625	-0.0546875	0.245361328125
524	2.183206106870229	4.358778625954199	-3.4427480916030535	-0.357666015625	-0.46533203125	-0.209228515625
525	-6.854961832061068	1.6946564885496183	-6.068702290076335	-0.55859375	-1.387939453125	0.06884765625
526	-30.412213740458014	1.1755725190839694	1.2061068702290076	-0.161865234375	-1.952392578125	-1.499267578125
527	-23.458015267175572	9.877862595419847	1.4274809160305344	-0.146484375	2.0	0.42626953125
528	-10.251908396946565	15.358778625954198	3.450381679389313	-1.036376953125	2.0	-0.985595703125
529	-1.9541984732824427	3.366412213740458	-5.099236641221374	-0.065185546875	-0.830078125	0.012939453125
530	-2.183206106870229	-4.366412213740458	-0.6335877862595419	-0.009033203125	-0.928466796875	0.433837890625
531	-7.938931297709924	1.5801526717557253	5.961832061068702	-0.354248046875	-1.06005859375	0.048583984375
532	-7.557251908396947	-0.9083969465648855	11.946564885496183	-0.856689453125	-1.921875	-0.041015625
533	3.7022900763358777	-2.969465648854962	-9.15267175572519	-0.3212890625	-1.023681640625	-0.630126953125
534	-9.549618320610687	-4.221374045801527	2.236641221374046	-0.373046875	-0.78271484375	-0.911376953125
535	-2.3282442748091605	10.305343511450381	-9.51908396946565	-1.991943359375	2.0	0.412109375
536	1.6641221374045803	-2.267175572519084	0.6870229007633588	-0.56201171875	-1.293701171875	0.045654296875
537	-0.48854961832061067	-0.20610687022900764	4.793893129770993	0.389892578125	-1.909912109375	-0.2099609375
538	13.32824427480916	-13.572519083969466	-31.00763358778626	-0.12646484375	-1.2646484375	1.20361328125
539	1.282442748091603	1.16793893129771	8.312977099236642	-0.208740234375	-0.49755859375	-0.462646484375
540	8.458015267175572	-18.244274809160306	13.748091603053435	-0.155517578125	0.04443359375	0.42431640625
541	2.8931297709923665	-12.580152671755725	-2.3053435114503817	0.409423828125	-0.879638671875	0.579833984375
542	13.068702290076336	-6.99236641221374	2.8473282442748094	-0.135986328125	-0.85205078125	-0.2392578125
543	17.641221374045802	1.916030534351145	5.770992366412214	0.37158203125	-1.205078125	-0.076416015625
544	14.679389312977099	-1.7633587786259541	11.0	-0.169189453125	-0.192626953125	0.847412109375
545	5.809160305343512	-17.671755725190838	-8.717557251908397	-0.38427734375	-0.1748046875	-0.1865234375
546	8.580152671755725	11.450381679389313	2.931297709923664	-1.989990234375	-0.395263671875	-0.510986328125
547	-0.7786259541984732	2.1068702290076335	-1.6946564885496183	-1.991943359375	-0.864013671875	-0.14208984375
548	7.893129770992366	-0.007633587786259542	-5.1603053435114505	-0.339111328125	-0.871826171875	0.1787109375
549	-7.366412213740458	25.519083969465647	21.34351145038168	-1.27734375	-0.24169921875	-1.19189453125
550	-24.61832061068702	9.938931297709924	-24.427480916030536	0.857421875	-0.676025390625	0.099609375
551	14.274809160305344	-17.0	-22.450381679389313	0.92626953125	-1.327392578125	-0.917724609375
552	-0.6335877862595419	-9.458015267175572	-7.557251908396947	0.104736328125	-0.703857421875	-0.0595703125
553	-5.3893129770992365	1.8396946564885497	0.6564885496183206	-0.125732421875	-1.695556640625	0.329833984375
554	4.931297709923665	-0.3511450381679389	1.3129770992366412	-0.08642578125	-0.765625	0.001953125
555	-2.427480916030534	-14.061068702290076	-0.9007633587786259	-0.311279296875	-0.3935546875	0.630126953125
556	-25.015267175572518	1.3893129770992367	-10.83969465648855	-0.501220703125	-1.826171875	0.369140625
557	17.068702290076335	-2.366412213740458	14.335877862595419	-0.102783203125	-0.02734375	-0.625
558	0.16793893129770993	0.6641221374045801	-1.251908396946565	-0.476318359375	-0.768310546875	0.01708984375
559	-3.1526717557251906	8.427480916030534	11.297709923664122	-0.469482421875	0.578857421875	-0.19384765625
560	21.64885496183206	-8.465648854961833	3.7786259541984735	0.1845703125	-0.555908203125	0.48388671875
561	-19.786259541984734	18.251908396946565	0.549618320610687	-0.85546875	-0.7646484375	-0.082275390625
562	-8.206106870229007	16.12213740458015	-2.9770992366412212	1.99993896484375	-0.517822265625	1.313720703125
563	-4.786259541984733	4.6183206106870225	-3.1755725190839694	-0.189697265625	-0.34619140625	-0.13134765625
564	-4.99236641221374	-1.0305343511450382	6.549618320610687	0.033447265625	-1.367919921875	0.232177734375
565	20.3206106870229	-18.129770992366414	-25.114503816793892	-0.025390625	-0.75830078125	-0.162109375
566	0.7786259541984732	-6.900763358778626	-9.572519083969466	-0.453369140625	-1.890625	1.721923828125
567	-6.847328244274809	4.175572519083969	-6.099236641221374	-0.20556640625	-1.192138671875	-0.199462890625
568	-21.389312977099237	10.282442748091603	6.412213740458015	-1.190673828125	2.0	0.981201171875
569	-1.4961832061068703	1.366412213740458	-0.8625954198473282	-0.441650390625	-0.81689453125	0.07568359375
570	4.1679389312977095	-3.381679389312977	-13.076335877862595	0.024169921875	-0.465576171875	0.380859375
571	-16.480916030534353	5.709923664122138	-13.389312977099237	-0.858642578125	-1.754638671875	-0.165771484375
572	15.946564885496183	-6.312977099236641	27.114503816793892	0.47998046875	-1.045654296875	-0.95263671875
573	-0.25190839694656486	5.221374045801527	4.480916030534351	-1.282470703125	-1.3310546875	0.7099609375
574	-4.923664122137405	-3.4580152671755724	5.763358778625954	-0.174560546875	-0.353515625	0.06396484375
575	-6.687022900763359	6.6106870229007635	0.648854961832061	0.051513671875	-0.664306640625	0.507568359375
576	6.129770992366412	-2.0076335877862594	-0.17557251908396945	-0.13623046875	-0.939697265625	0.185791015625
577	2.687022900763359	-22.450381679389313	-0.183206106870229	0.320556640625	0.473388671875	-0.80322265625
578	1.6106870229007633	-10.091603053435115	-0.16030534351145037	-0.07958984375	-0.24951171875	-0.635498046875
579	3.900763358778626	-7.083969465648855	15.557251908396946	-0.3984375	-0.025634765625	-0.558837890625
580	8.465648854961833	-2.0839694656488548	-14.229007633587786	-0.217529296875	-1.637939453125	-0.32958984375
581	15.625954198473282	8.50381679389313	-10.870229007633588	-0.4482421875	-0.363037109375	-0.0546875
582	-1.816793893129771	3.122137404580153	7.755725190839694	-0.76171875	-1.282958984375	0.062744140625
583	-27.862595419847327	10.82442748091603	14.435114503816793	1.77685546875	-0.972900390625	0.373291015625
584	2.1755725190839694	-6.366412213740458	-11.34351145038168	0.038818359375	-0.953857421875	0.84130859375
585	-20.229007633587788	27.0	16.51145038167939	0.027587890625	-0.41650390625	1.460205078125
586	-5.755725190839694	-4.183206106870229	-5.427480916030534	-0.611328125	-0.78759765625	0.68212890625
587	-0.5954198473282443	-5.175572519083969	0.9465648854961832	0.177490234375	-0.200927734375	0.005126953125
588	3.717557251908397	-11.030534351145038	-1.8091603053435115	-0.29345703125	-0.285400390625	-0.072998046875
589	3.7099236641221376	-14.374045801526718	6.00763358778626	-0.37646484375	-0.58203125	0.484130859375
590	-13.946564885496183	2.8625954198473282	15.290076335877863	-0.455322265625	-1.828369140625	1.99993896484375
591	2.366412213740458	-1.2671755725190839	-1.1755725190839694	-0.26123046875	-0.757568359375	-0.679931640625
592	14.557251908396946	11.099236641221374	-19.053435114503817	-0.47802734375	-0.88134765625	-0.447998046875
593	14.80916030534351	-0.2366412213740458	-22.045801526717558	0.067138671875	-1.046630859375	0.104248046875
594	-9.374045801526718	2.7022900763358777	16.763358778625953	1.363037109375	2.0	1.402587890625
595	-25.091603053435115	9.389312977099237	3.2290076335877864	-1.23486328125	-0.314453125	0.51171875
596	-33.20610687022901	11.34351145038168	4.435114503816794	0.6240234375	-1.435546875	1.546630859375
597	6.450381679389313	-14.442748091603054	-10.98473282442748	0.0283203125	-0.59228515625	0.14111328125
598	4.282442748091603	-0.9694656488549618	-15.129770992366412	-0.171875	-1.70947265625	-0.199951171875
599	8.526717557251908	1.366412213740458	8.938931297709924	-0.617431640625	0.03857421875	-0.560791015625
600	3.183206106870229	-14.49618320610687	7.32824427480916	-0.351318359375	-0.31640625	0.4501953125
601	24.290076335877863	-10.50381679389313	-11.251908396946565	-0.24365234375	-0.56201171875	-0.09521484375
602	-4.870229007633588	-0.030534351145038167	2.816793893129771	-0.006103515625	-0.14208984375	-0.799072265625
603	-1.7404580152671756	2.2519083969465647	-3.16793893129771	-0.5908203125	-1.029541015625	0.03271484375
604	-1.3893129770992367	6.282442748091603	1.9770992366412214	0.428955078125	-1.46875	-0.141357421875
605	10.259541984732824	-3.732824427480916	-8.267175572519085	-0.415771484375	-1.99853515625	-0.202392578125
606	-0.8015267175572519	-5.458015267175573	9.80916030534351	2.0	-0.050048828125	0.51708984375
607	8.396946564885496	21.83969465648855	1.5190839694656488	-0.74267578125	-0.49755859375	0.06787109375
608	-3.1526717557251906	0.7022900763358778	2.687022900763359	-0.0390625	-0.694580078125	0.0712890625
609	0.3969465648854962	6.320610687022901	3.0916030534351147	-0.529541015625	-0.622314453125	1.698974609375
610	-2.618320610687023	0.9541984732824428	0.24427480916030533	-0.0634765625	-0.535888671875	-0.44970703125
611	6.0458015267175576	-11.221374045801527	-9.17557251908397	-0.5830078125	-0.608154296875	0.093017578125
612	5.923664122137405	-4.038167938931298	-18.938931297709924	-1.994140625	-1.50146484375	-0.8798828125
613	1.9923664122137406	-3.7251908396946565	-0.6717557251908397	-0.4033203125	-0.550537109375	0.002685546875
614	-5.1679389312977095	-1.816793893129771	-10.717557251908397	0.045166015625	1.173583984375	0.2890625
615	-7.541984732824427	2.0610687022900764	14.725190839694656	-0.535888671875	-0.42333984375	-0.549560546875
616	12.229007633587786	1.450381679389313	7.396946564885496	0.917236328125	-1.184326171875	0.8642578125
617	1.7709923664122138	-9.374045801526718	10.98473282442748	0.4150390625	-0.1982421875	0.71484375
618	-2.2290076335877864	-5.717557251908397	10.885496183206106	0.069091796875	-0.1279296875	-0.051513671875
619	8.50381679389313	-8.450381679389313	-7.198473282442748	0.0986328125	-0.476318359375	0.0380859375
620	10.297709923664122	12.969465648854962	6.603053435114504	-0.350830078125	-0.139404296875	-1.3798828125
621	7.923664122137405	6.312977099236641	-27.50381679389313	-0.86328125	2.0	-1.229248046875
622	26.946564885496183	5.511450381679389	5.694656488549619	-0.19775390625	-0.443603515625	-0.58837890625
623	14.564885496183207	-6.778625954198473	12.572519083969466	-0.427490234375	-0.507080078125	-0.228759765625
624	4.526717557251908	1.0	5.938931297709924	-0.267333984375	-0.203369140625	-0.09326171875
625	-0.4198473282442748	7.0	5.908396946564886	-1.315673828125	-0.79052734375	-0.450439453125
626	-6.404580152671755	-18.14503816793893	-19.17557251908397	-0.163330078125	1.047607421875	1.014892578125
627	-36.05343511450382	17.03053435114504	-17.51145038167939	-1.1962890625	-1.058349609375	1.674560546875
628	-18.923664122137403	-0.32061068702290074	13.145038167938932	-0.397705078125	-1.633056640625	1.543701171875
629	-8.450381679389313	3.816793893129771	8.587786259541986	0.404052734375	-1.21484375	-0.539306640625
630	0.5343511450381679	-3.877862595419847	-6.748091603053435	-1.019287109375	2.0	1.324951171875
631	-5.9465648854961835	-1.4732824427480915	4.893129770992366	-0.279541015625	-0.353271484375	1.33642578125
632	27.786259541984734	4.259541984732825	-5.99236641221374	-1.017822265625	2.0	-1.94775390625
633	-16.358778625954198	-5.778625954198473	2.8091603053435112	0.30126953125	-0.22802734375	0.51806640625
634	5.458015267175573	5.374045801526718	-4.580152671755725	-0.809326171875	-0.82861328125	-0.07177734375
635	-11.045801526717558	3.572519083969466	1.6641221374045803	-0.263671875	-1.163330078125	0.727294921875
636	11.183206106870228	-5.145038167938932	-5.480916030534351	-0.3193359375	-0.976318359375	-0.82470703125
637	-20.862595419847327	10.931297709923664	11.122137404580153	-0.468505859375	2.0	0.1015625
638	-10.32824427480916	0.9007633587786259	7.67175572519084	-0.419189453125	-0.864990234375	0.44091796875
639	-8.381679389312977	2.5572519083969465	0.8396946564885496	-0.194091796875	-1.44677734375	0.33447265625
640	6.847328244274809	5.99236641221374	7.6183206106870225	0.220947265625	-0.21630859375	0.1005859375
641	0.5648854961832062	-1.984732824427481	0.732824427480916	-0.015625	-0.701904296875	-0.092041015625
642	3.83206106870229	-5.648854961832061	-4.435114503816794	-0.177734375	-0.79541015625	-0.796875
643	7.1603053435114505	-2.66412213740458	4.259541984732825	-1.991455078125	-0.525390625	-0.135986328125
644	10.603053435114504	22.251908396946565	-5.244274809160306	-0.9580078125	-0.842041015625	0.09912109375
645	1.5954198473282444	-18.83969465648855	2.885496183206107	-0.840576171875	0.959228515625	0.259765625
646	4.122137404580153	-8.183206106870228	9.114503816793894	0.725830078125	-0.798828125	0.351318359375
647	2.099236641221374	-1.3282442748091603	-0.1984732824427481	-0.51220703125	-1.1015625	0.4013671875
648	1.5877862595419847	0.2366412213740458	-21.709923664122137	-0.290283203125	-0.76708984375	0.677734375
649	-7.580152671755725	0.8702290076335878	7.450381679389313	0.225830078125	-0.22607421875	0.39794921875
650	-0.40458015267175573	-1.0458015267175573	-0.6946564885496184	-0.0634765625	-1.2744140625	0.236328125
651	5.030534351145038	2.2900763358778624	5.267175572519084	-0.25	-1.1953125	0.2607421875
652	-0.1297709923664122	14.435114503816793	12.32824427480916	-0.525146484375	-0.44482421875	1.99993896484375
653	4.122137404580153	4.778625954198473	0.5954198473282443	-0.318115234375	-0.837646484375	-0.63427734375
654	10.610687022900763	-6.549618320610687	-2.7404580152671754	0.1494140625	0.04638671875	-0.4462890625
655	-9.396946564885496	14.755725190839694	-6.320610687022901	-1.124267578125	2.0	0.0419921875
656	-1.2595419847328244	9.465648854961833	-3.2213740458015265	0.0234375	-1.48291015625	-0.0458984375
657	8.885496183206106	10.51908396946565	-14.870229007633588	-0.825439453125	2.0	0.513671875
658	21.442748091603054	11.49618320610687	2.8396946564885495	0.768798828125	2.0	0.21435546875
659	-5.564885496183206	1.381679389312977	4.786259541984733	-0.059326171875	-0.94921875	-0.727783203125
660	8.633587786259541	-12.86259541984733	4.473282442748092	-0.717529296875	-0.18701171875	-0.004638671875
661	-5.916030534351145	-7.694656488549619	0.1984732824427481	-0.3251953125	-0.59130859375	-0.245849609375
662	-0.5954198473282443	-3.7099236641221376	0.22137404580152673	0.226318359375	-0.987548828125	-0.06787109375
663	7.152671755725191	4.32824427480916	0.8549618320610687	-0.009765625	-0.961669921875	0.211181640625
664	-2.5343511450381677	1.0534351145038168	0.183206106870229	-1.997314453125	-0.58935546875	0.70751953125
665	6.969465648854962	3.854961832061069	2.687022900763359	-0.022705078125	-0.9580078125	-0.06005859375
666	-11.969465648854962	-0.5114503816793893	23.259541984732824	0.098876953125	-0.447509765625	-1.399658203125
667	-10.534351145038167	11.030534351145038	3.50381679389313	0.2080078125	-0.919189453125	0.124755859375
668	8.793893129770993	5.1679389312977095	-3.2061068702290076	-0.436279296875	-1.028076171875	0.2685546875
669	-8.312977099236642	0.7938931297709924	-4.580152671755725	0.5234375	-0.502685546875	-0.3828125
670	3.717557251908397	-9.297709923664122	-44.69465648854962	0.304931640625	-1.02490234375	1.947021484375
671	-12.679389312977099	2.717557251908397	-5.061068702290076	0.2265625	-1.09619140625	-0.61181640625
672	-2.854961832061069	-6.931297709923665	10.320610687022901	-0.232666015625	-0.85986328125	0.531982421875
673	2.33587786259542	1.7557251908396947	1.9312977099236641	-0.387451171875	-0.999267578125	0.92431640625
674	6.847328244274809	1.3511450381679388	-1.534351145038168	-0.0439453125	-1.31787109375	0.553466796875
675	-1.5190839694656488	-0.40458015267175573	-1.6259541984732824	0.0546875	-0.2919921875	0.620361328125
676	-9.412213740458014	-7.190839694656488	14.083969465648854	0.0556640625	-1.41748046875	1.338623046875
677	1.183206106870229	-15.83969465648855	9.679389312977099	0.3505859375	-0.46630859375	-0.306396484375
678	3.946564885496183	-15.374045801526718	11.030534351145038	-0.165771484375	-0.937744140625	-1.06103515625
679	-4.9541984732824424	-11.297709923664122	-1.2366412213740459	0.24267578125	0.1533203125	-0.1328125
680	2.5343511450381677	8.358778625954198	-1.9541984732824427	-0.63330078125	-1.22509765625	-0.140625
681	-3.1068702290076335	-6.8320610687022905	7.183206106870229	-1.031982421875	-1.247802734375	0.03466796875
682	10.48091603053435	-2.633587786259542	-7.206106870229007	-0.5712890625	-0.41748046875	0.784423828125
683	-35.908396946564885	15.534351145038167	1.2366412213740459	-0.074462890625	-1.854736328125	1.088134765625
684	-7.175572519083969	6.931297709923665	4.557251908396947	0.049072265625	2.0	1.453125
685	-2.2061068702290076	-16.793893129770993	3.1297709923664123	-0.07763671875	-0.5849609375	1.145263671875
686	1.4274809160305344	-6.221374045801527	2.2442748091603053	-0.183837890625	-0.3291015625	0.384033203125
687	-7.1679389312977095	6.175572519083969	2.145038167938931	0.2958984375	-0.9716796875	0.17578125
688	2.8396946564885495	-19.82442748091603	-3.954198473282443	0.279541015625	0.014892578125	0.111572265625
689	2.816793893129771	2.9160305343511452	6.3893129770992365	-0.70654296875	-0.026611328125	-0.25732421875
690	-2.66412213740458	0.12213740458015267	-14.198473282442748	-0.469482421875	-0.90673828125	-1.053955078125
691	-10.709923664122137	4.183206106870229	-6.824427480916031	-0.4150390625	-0.26611328125	0.2666015625
692	5.33587786259542	6.374045801526718	-3.366412213740458	-0.733154296875	-0.547119140625	-0.06201171875
693	0.2824427480916031	2.282442748091603	-5.213740458015267	-0.43505859375	-0.770751953125	0.0556640625
694	-6.717557251908397	2.2519083969465647	-5.519083969465649	-0.81201171875	2.0	0.094970703125
695	-5.870229007633588	1.1145038167938932	-1.7786259541984732	-0.0146484375	-0.884765625	-0.46240234375
696	-20.389312977099237	15.412213740458014	-1.6870229007633588	-1.342529296875	2.0	0.91650390625
697	7.7251908396946565	-5.0458015267175576	9.687022900763358	0.13134765625	-0.53857421875	0.137451171875
698	-0.9770992366412213	-2.1755725190839694	3.3435114503816794	0.103759765625	-0.89794921875	0.262451171875
699	2.312977099236641	-3.8244274809160306	-2.2977099236641223	-0.132080078125	-0.716796875	0.349609375
700	-43.603053435114504	16.84732824427481	24.778625954198475	-0.589599609375	-0.145751953125	1.41064453125
701	8.98473282442748	9.625954198473282	-15.213740458015268	-0.109619140625	-0.377685546875	-0.27490234375
702	-60.67175572519084	9.86259541984733	8.374045801526718	-0.298583984375	-0.96728515625	1.99993896484375
703	-4.435114503816794	-7.404580152671755	-14.65648854961832	-0.543701171875	-1.123046875	0.47705078125
704	1.8702290076335877	0.16030534351145037	-0.7709923664122137	-0.565185546875	-0.587158203125	-0.065185546875
705	-9.366412213740459	0.3435114503816794	-2.5419847328244276	-1.484130859375	2.0	0.196533203125
706	-11.312977099236642	-23.297709923664122	-9.816793893129772	-1.3955078125	-0.388916015625	0.533447265625
707	3.4580152671755724	0.8778625954198473	1.282442748091603	-0.276123046875	-0.56494140625	0.185791015625
708	26.290076335877863	-22.18320610687023	13.32824427480916	0.422119140625	-0.44384765625	0.836181640625
709	28.022900763358777	15.312977099236642	8.297709923664122	-0.564208984375	-1.257080078125	0.05517578125
710	-1.0076335877862594	-2.4198473282442747	0.8854961832061069	-0.057861328125	-1.18017578125	0.48779296875
711	-12.900763358778626	3.5419847328244276	-17.358778625954198	-0.5986328125	-1.9912109375	0.931640625
712	5.526717557251908	-6.297709923664122	-16.0	-1.454345703125	-0.3935546875	0.07763671875
713	-26.137404580152673	-17.03053435114504	12.702290076335878	-0.11474609375	-0.86279296875	-0.96337890625
714	-7.557251908396947	12.022900763358779	-6.290076335877862	-0.69189453125	-1.425048828125	1.06243896484375
715	-16.900763358778626	-0.06870229007633588	13.946564885496183	-0.452880859375	-0.384521484375	0.602783203125
716	10.793893129770993	5.923664122137405	-21.33587786259542	-0.6572265625	-0.69921875	0.059814453125
717	3.122137404580153	-1.2290076335877862	3.2900763358778624	0.063720703125	-1.264404296875	-0.11962890625
718	12.694656488549619	-19.801526717557252	-11.061068702290076	-0.67626953125	-0.180908203125	1.71044921875
719	12.908396946564885	-9.641221374045802	-2.7022900763358777	-0.638427734375	0.16015625	0.126708984375
720	-3.732824427480916	-2.0763358778625953	-24.48854961832061	1.2353515625	2.0	-0.756591796875
721	1.2442748091603053	-3.854961832061069	1.099236641221374	0.10693359375	-0.428955078125	0.721435546875
722	9.51908396946565	-6.816793893129771	4.114503816793893	-0.087646484375	-0.31298828125	-0.19580078125
723	-3.0381679389312977	-10.526717557251908	-4.969465648854962	0.176025390625	-0.689453125	-1.014892578125
724	-5.3893129770992365	0.25190839694656486	-7.358778625954199	-0.387451171875	2.0	0.598388671875
725	-6.862595419847328	-18.47328244274809	-7.580152671755725	0.38818359375	0.053466796875	0.368896484375
726	4.488549618320611	-10.84732824427481	-2.8244274809160306	0.11328125	-0.9619140625	-0.18359375
727	9.664122137404581	16.916030534351144	-29.404580152671755	-1.1787109375	-0.803466796875	-0.518798828125
728	0.9312977099236641	5.251908396946565	-0.35877862595419846	-0.421630859375	-1.525634765625	-0.271240234375
729	7.763358778625954	-1.816793893129771	5.519083969465649	0.599365234375	-1.671875	0.937744140625
730	3.213740458015267	-0.8549618320610687	5.641221374045801	0.4365234375	-0.648681640625	0.5185546875
731	-17.19083969465649	6.282442748091603	-4.076335877862595	0.712646484375	-1.96875	1.99462890625
732	2.267175572519084	-0.7557251908396947	14.419847328244275	0.324951171875	-0.294677734375	-0.074462890625
733	-1.7938931297709924	-6.709923664122138	11.396946564885496	-0.10986328125	-1.025634765625	0.57958984375
734	-1.916030534351145	-6.8396946564885495	-6.900763358778626	-0.214599609375	-0.679443359375	0.01171875
735	-8.763358778625955	6.755725190839694	27.46564885496183	-0.4326171875	0.053466796875	-0.75048828125
736	-8.465648854961833	-0.7862595419847328	2.366412213740458	0.15283203125	-0.42529296875	-0.06640625
737	-12.801526717557252	-17.137404580152673	6.679389312977099	-0.080810546875	-0.4990234375	-0.20849609375
738	-10.320610687022901	1.2442748091603053	-5.679389312977099	-0.339599609375	-0.834228515625	0.136962890625
739	5.076335877862595	7.282442748091603	-11.625954198473282	-1.9970703125	-0.782470703125	-0.33984375
740	-9.465648854961833	-1.1526717557251909	-6.679389312977099	0.06689453125	-0.12255859375	-0.373779296875
741	1.7557251908396947	-3.366412213740458	-29.450381679389313	-0.395751953125	2.0	0.1220703125
742	1.2748091603053435	-3.687022900763359	14.297709923664122	-0.847900390625	-0.310791015625	0.002197265625
743	13.48091603053435	-5.702290076335878	-28.801526717557252	-0.703125	-0.99951171875	0.85931396484375
744	14.664122137404581	2.3053435114503817	10.381679389312977	-0.1142578125	-0.425048828125	-0.003173828125
745	-0.13740458015267176	-4.320610687022901	1.4274809160305344	-0.041015625	-0.712158203125	0.349853515625
746	1.816793893129771	-4.396946564885496	-3.1068702290076335	0.64404296875	-1.083984375	0.158447265625
747	-0.030534351145038167	-0.12213740458015267	7.1679389312977095	0.7197265625	0.410888671875	0.891357421875
748	10.603053435114504	-6.801526717557252	-15.458015267175572	-0.321533203125	0.23193359375	-0.11865234375
749	-34.76335877862596	9.50381679389313	-8.229007633587786	-0.8056640625	2.0	1.9970703125
750	-1.5801526717557253	9.923664122137405	10.16793893129771	-0.607421875	-0.400634765625	-0.151611328125
751	-2.732824427480916	10.396946564885496	2.801526717557252	0.51171875	-0.21142578125	-0.845703125
752	6.229007633587786	1.0763358778625953	13.320610687022901	-0.846435546875	0.150390625	-0.314697265625
753	-8.419847328244275	-5.458015267175573	13.221374045801527	0.740234375	0.15087890625	-0.240234375
754	19.404580152671755	-8.244274809160306	-0.24427480916030533	-0.167724609375	-0.804443359375	0.8525390625
755	-12.091603053435115	-3.7786259541984735	-1.3969465648854962	-1.25439453125	-1.132080078125	0.695556640625
756	3.717557251908397	-4.083969465648855	4.633587786259542	0.179931640625	-0.628662109375	0.105224609375
757	-5.351145038167939	-0.816793893129771	6.633587786259542	0.14111328125	-0.137939453125	-0.193115234375
758	-11.053435114503817	9.98473282442748	5.030534351145038	-0.984130859375	-1.249755859375	1.53662109375
759	8.282442748091603	3.33587786259542	22.595419847328245	-0.206298828125	0.05908203125	-0.26513671875
760	-21.297709923664122	-5.900763358778626	4.32824427480916	-0.98388671875	-1.9921875	1.8232421875
761	10.717557251908397	2.572519083969466	-9.679389312977099	-0.782958984375	-0.80419921875	0.00537109375
762	12.511450381679388	-8.183206106870228	-6.175572519083969	-0.606689453125	-0.273193359375	-0.006591796875
763	-8.396946564885496	5.068702290076335	3.687022900763359	-1.06689453125	-1.113525390625	-0.369384765625
764	9.038167938931299	-5.511450381679389	1.984732824427481	-0.713134765625	0.330322265625	0.15625
765	-9.763358778625955	-6.66412213740458	-3.1297709923664123	0.75048828125	2.0	0.5341796875
766	3.8396946564885495	-10.572519083969466	-3.66412213740458	-0.107421875	-1.2021484375	0.050048828125
767	-5.320610687022901	4.740458015267175	3.801526717557252	0.0234375	-1.249267578125	0.531494140625
768	6.465648854961832	11.908396946564885	8.19083969465649	0.043212890625	-0.655029296875	-0.539794921875
769	-1.83206106870229	-14.48091603053435	-17.931297709923665	-0.5263671875	-1.891357421875	1.131103515625
770	10.099236641221374	-5.511450381679389	-25.83969465648855	-0.65625	-1.050048828125	-0.5234375
771	-3.122137404580153	6.557251908396947	-7.66412213740458	-1.075439453125	2.0	-1.036865234375
772	5.312977099236641	16.68702290076336	-10.946564885496183	-1.15087890625	-0.919189453125	0.357177734375
773	-1.2213740458015268	7.847328244274809	2.2519083969465647	-0.387451171875	-1.1845703125	-0.461181640625
774	-5.847328244274809	-2.053435114503817	0.9770992366412213	-0.812255859375	-1.661376953125	1.958984375
775	-4.702290076335878	-1.5801526717557253	11.748091603053435	-0.549560546875	0.65966796875	0.6796875
776	2.7709923664122136	7.748091603053435	-11.305343511450381	0.5703125	2.0	0.6845703125
777	-2.717557251908397	-13.923664122137405	16.061068702290076	-0.325927734375	-0.6796875	1.963623046875
778	-5.221374045801527	3.9160305343511452	0.13740458015267176	-0.201171875	-1.222412109375	0.75390625
779	0.8549618320610687	0.022900763358778626	8.549618320610687	-0.187744140625	0.140625	-0.440673828125
780	-19.34351145038168	0.8320610687022901	0.7404580152671756	-0.526611328125	2.0	1.41845703125
781	-6.9465648854961835	-4.038167938931298	-18.022900763358777	-1.02001953125	-0.88623046875	-0.46533203125
782	2.854961832061069	8.0	-27.328244274809162	-0.522216796875	-0.460205078125	0.150146484375
783	-17.31297709923664	-0.8625954198473282	-0.42748091603053434	-1.41748046875	2.0	1.500732421875
784	2.8473282442748094	13.618320610687023	-0.3511450381679389	-1.047119140625	-0.6591796875	-0.16552734375
785	-13.335877862595419	4.038167938931298	-1.8625954198473282	-1.271484375	-1.240234375	0.35400390625
786	-5.099236641221374	-1.9389312977099236	8.84732824427481	-0.454833984375	-0.766845703125	-0.129638671875
787	4.175572519083969	-0.9007633587786259	10.65648854961832	-1.49951171875	-0.95166015625	-0.636474609375
788	13.122137404580153	-9.98473282442748	6.068702290076335	0.338134765625	-1.466064453125	-0.117431640625
789	4.732824427480916	1.4045801526717556	-4.534351145038168	0.234619140625	-0.386474609375	-0.00146484375
790	2.0381679389312977	-2.6030534351145036	1.6488549618320612	0.12548828125	-1.105224609375	0.310791015625
791	7.00763358778626	3.0763358778625953	23.84732824427481	-0.005126953125	-1.253662109375	-0.719970703125
792	9.694656488549619	-12.541984732824428	-13.83206106870229	0.117919921875	-0.173095703125	-0.0224609375
793	8.732824427480915	-0.6030534351145038	-26.34351145038168	-0.135498046875	-0.6318359375	-0.0859375
794	6.213740458015267	-8.206106870229007	-1.8702290076335877	-0.63525390625	-0.73779296875	-0.159423828125
795	17.732824427480917	17.763358778625953	-33.45038167938932	-0.885009765625	-0.9697265625	0.053955078125
796	0.022900763358778626	-20.061068702290076	-6.8320610687022905	-0.50634765625	0.24755859375	0.06591796875
797	-3.8091603053435112	-4.793893129770993	-2.1603053435114505	-1.366455078125	0.238037109375	0.785888671875
798	-0.9389312977099237	3.3282442748091605	-2.618320610687023	2.0	0.0087890625	1.989013671875
799	-8.16793893129771	-0.03816793893129771	-0.46564885496183206	-0.03369140625	-0.1162109375	0.591552734375
800	8.076335877862595	-1.6106870229007633	9.282442748091603	0.10693359375	-0.5703125	1.99993896484375
801	-2.030534351145038	-2.9236641221374047	-0.04580152671755725	-0.2001953125	-1.393310546875	0.30224609375
802	4.442748091603053	1.1145038167938932	-15.17557251908397	-0.58251953125	-1.994384765625	1.322509765625
803	5.549618320610687	-8.007633587786259	0.1297709923664122	-1.029052734375	-1.36181640625	-0.647705078125
804	2.2519083969465647	-13.625954198473282	-2.045801526717557	-0.372314453125	-0.65576171875	0.47314453125
805	-11.793893129770993	5.7251908396946565	-5.00763358778626	-0.73974609375	2.0	1.99072265625
806	6.847328244274809	5.3816793893129775	-13.694656488549619	-0.632080078125	-0.937744140625	-0.054931640625
807	-20.198473282442748	4.183206106870229	12.67175572519084	-0.72607421875	-0.28955078125	0.65283203125
808	-39.091603053435115	-8.541984732824428	-16.641221374045802	-0.9716796875	0.49365234375	-1.043701171875
809	6.809160305343512	6.290076335877862	-1.366412213740458	-0.32666015625	-1.921875	1.821533203125
810	12.404580152671755	-20.549618320610687	11.65648854961832	-0.51953125	0.021240234375	0.970703125
811	3.66412213740458	4.358778625954199	3.3740458015267176	-0.06982421875	-0.45458984375	0.632568359375
812	2.2061068702290076	-3.885496183206107	1.4045801526717556	0.15771484375	-1.03173828125	0.144775390625
813	-9.778625954198473	0.2824427480916031	-12.442748091603054	-0.68115234375	2.0	0.579833984375
814	-7.015267175572519	-1.4732824427480915	-3.5267175572519083	-1.50146484375	2.0	0.64501953125
815	-4.717557251908397	-4.877862595419847	-8.236641221374045	-0.576171875	-0.87939453125	0.157470703125
816	2.984732824427481	-6.0458015267175576	7.00763358778626	-0.545654296875	-0.55810546875	0.427001953125
817	4.580152671755725	0.8396946564885496	-7.038167938931298	-1.290771484375	-0.492919921875	-0.078857421875
818	0.6946564885496184	0.6259541984732825	-1.8549618320610688	-1.0498046875	-1.888671875	0.579833984375
819	-9.290076335877863	-2.099236641221374	-13.305343511450381	0.59521484375	-1.998046875	1.091064453125
820	-16.35114503816794	-6.412213740458015	-6.129770992366412	-1.96142578125	-0.632080078125	1.99993896484375
821	-17.870229007633586	6.893129770992366	14.465648854961833	0.1650390625	-0.031005859375	0.57958984375
822	1.3206106870229009	5.519083969465649	9.427480916030534	-0.521240234375	-0.579345703125	0.82861328125
823	-0.6564885496183206	-1.5419847328244274	3.1297709923664123	0.173583984375	-0.91552734375	0.12109375
824	16.740458015267176	-5.137404580152672	-9.763358778625955	-0.054443359375	-1.36328125	-0.09521484375
825	12.244274809160306	-9.786259541984732	5.793893129770993	0.049560546875	-0.59326171875	0.388916015625
826	-16.099236641221374	-6.297709923664122	-2.0610687022900764	-1.080322265625	2.0	0.79541015625
827	-10.687022900763358	-7.938931297709924	4.694656488549619	-0.14404296875	-0.428466796875	0.0009765625
828	-16.33587786259542	-14.946564885496183	19.259541984732824	0.03564453125	0.0595703125	-0.171630859375
829	0.9007633587786259	-0.648854961832061	2.366412213740458	-0.511962890625	-1.05322265625	0.377685546875
830	-6.694656488549619	2.1374045801526718	1.8015267175572518	1.0771484375	-1.9873046875	-0.37841796875
831	-0.10687022900763359	-7.534351145038168	-12.48091603053435	-0.8388671875	-1.000244140625	1.370849609375
832	0.7404580152671756	-5.67175572519084	3.5267175572519083	-1.461669921875	0.092529296875	0.546875
833	8.557251908396946	-4.244274809160306	-0.7480916030534351	0.054931640625	-0.071533203125	-0.889892578125
834	-3.0381679389312977	1.9923664122137406	4.969465648854962	0.0830078125	-0.705810546875	0.033203125
835	-7.5038167938931295	-10.969465648854962	20.99236641221374	0.087890625	-0.0771484375	-0.25390625
836	-23.755725190839694	8.48091603053435	-1.7633587786259541	-0.4794921875	2.0	0.398681640625
837	-19.061068702290076	11.763358778625955	-9.061068702290076	-1.00830078125	2.0	1.16943359375
838	1.6717557251908397	9.694656488549619	-4.282442748091603	-0.705078125	-0.88525390625	0.30810546875
839	0.648854961832061	-3.6030534351145036	3.1068702290076335	-0.18505859375	-0.7255859375	-0.82080078125
840	32.656488549618324	25.68702290076336	-51.9236641221374	-1.130126953125	-0.442138671875	-0.044677734375
841	11.740458015267176	-0.7786259541984732	1.8091603053435115	-0.22607421875	-0.156982421875	-0.365966796875
842	0.4732824427480916	-2.7251908396946565	0.916030534351145	0.977294921875	2.0	0.0810546875
843	13.351145038167939	3.7022900763358777	-13.351145038167939	1.236328125	2.0	1.991943359375
844	28.709923664122137	-18.65648854961832	9.86259541984733	-0.5380859375	-0.84619140625	-0.25146484375
845	6.137404580152672	5.061068702290076	-9.755725190839694	0.236328125	-1.871826171875	0.511962890625
846	-5.526717557251908	-1.786259541984733	3.236641221374046	0.075927734375	-0.76220703125	0.105712890625
847	7.2748091603053435	-1.0458015267175573	4.358778625954199	-0.662841796875	-1.49365234375	0.314453125
848	8.816793893129772	-0.48091603053435117	0.05343511450381679	-0.20361328125	-0.80419921875	-0.29541015625
849	-4.740458015267175	1.4045801526717556	5.083969465648855	2.0	-1.1640625	1.99993896484375
850	-10.221374045801527	-3.183206106870229	-8.32824427480916	-0.50830078125	-0.86865234375	0.610107421875
851	19.786259541984734	-17.786259541984734	-20.114503816793892	-0.7548828125	-0.091552734375	-0.144775390625
852	-0.3511450381679389	-1.465648854961832	-4.106870229007634	-0.26416015625	2.0	0.5703125
853	2.3587786259541983	-0.16793893129770993	2.9236641221374047	0.136474609375	-1.28466796875	-0.0029296875
854	-33.7557251908397	-0.6259541984732825	3.49618320610687	0.30126953125	-0.8447265625	0.115478515625
855	1.5419847328244274	0.6030534351145038	4.488549618320611	0.11572265625	-0.03466796875	-0.238525390625
856	-7.763358778625954	-0.6183206106870229	-0.8702290076335878	-0.3564453125	0.01708984375	0.1650390625
857	2.267175572519084	-15.572519083969466	-3.732824427480916	-1.153564453125	-0.958251953125	0.08544921875
858	14.564885496183207	-1.9541984732824427	-4.900763358778626	-0.46533203125	-1.9951171875	0.801513671875
859	-13.274809160305344	-0.6030534351145038	3.450381679389313	-0.322265625	-0.60986328125	-0.589111328125
860	-4.366412213740458	4.8320610687022905	-1.5572519083969465	-0.651611328125	-1.196533203125	0.046142578125
861	20.244274809160306	0.16793893129770993	2.351145038167939	0.206298828125	-1.5458984375	0.318115234375
862	10.557251908396946	-15.229007633587786	3.1297709923664123	-0.438720703125	0.37255859375	0.359130859375
863	1.0763358778625953	-3.7557251908396947	-19.748091603053435	-0.444091796875	-1.268798828125	-0.294921875
864	2.7786259541984735	-4.786259541984733	-22.427480916030536	-0.056396484375	2.0	1.370849609375
865	-34.67175572519084	12.725190839694656	-1.1450381679389312	-0.128662109375	2.0	1.0263671875
866	1.7633587786259541	-2.595419847328244	-1.450381679389313	-0.139404296875	-1.001220703125	0.025146484375
867	-3.4122137404580153	-1.6717557251908397	-11.763358778625955	-0.09033203125	2.0	-0.27099609375
868	15.358778625954198	8.038167938931299	17.015267175572518	-0.0712890625	0.008056640625	-0.466064453125
869	-17.251908396946565	5.0534351145038165	1.702290076335878	-0.3515625	2.0	0.944091796875
870	-22.022900763358777	-3.49618320610687	45.0	0.567138671875	0.10986328125	0.0205078125
871	9.98473282442748	18.625954198473284	-17.12213740458015	-1.98828125	-1.400634765625	0.070556640625
872	0.22900763358778625	0.33587786259541985	1.8931297709923665	-0.637939453125	-0.796142578125	-0.185546875
873	9.954198473282442	-0.37404580152671757	-24.793893129770993	-0.299072265625	-0.90625	-0.164794921875
874	0.0916030534351145	1.6106870229007633	-6.427480916030534	-0.98974609375	-1.0869140625	1.129150390625
875	-12.198473282442748	-1.6488549618320612	-10.86259541984733	-0.367919921875	0.75048828125	1.434326171875
876	13.793893129770993	6.236641221374046	17.213740458015266	-0.33349609375	-0.80908203125	0.6572265625
877	4.549618320610687	-1.1450381679389312	10.312977099236642	0.052001953125	0.00048828125	0.127685546875
878	5.984732824427481	-5.717557251908397	1.465648854961832	0.02099609375	-0.2431640625	-0.064208984375
879	12.465648854961833	-0.8931297709923665	-0.7862595419847328	-0.3291015625	-0.259521484375	-0.4541015625
880	-22.64885496183206	-2.519083969465649	7.068702290076335	-0.137939453125	-0.549072265625	0.116943359375
881	-0.40458015267175573	-10.427480916030534	9.229007633587786	-0.482421875	0.117431640625	1.0966796875
882	7.297709923664122	-12.770992366412214	2.9618320610687023	-0.5263671875	-0.69580078125	-0.020263671875
883	-2.1297709923664123	0.9541984732824428	-1.8778625954198473	-0.633544921875	-0.705322265625	0.03271484375
884	-0.16030534351145037	-18.17557251908397	-3.8091603053435112	-0.661865234375	0.56005859375	0.83837890625
885	3.9923664122137406	-2.66412213740458	14.82442748091603	-0.93994140625	-0.167236328125	0.18603515625
886	-13.030534351145038	-17.083969465648856	-10.007633587786259	-1.7216796875	-0.187255859375	-0.4169921875
887	15.687022900763358	11.572519083969466	12.16030534351145	0.38232421875	-0.995361328125	0.940673828125
888	-6.809160305343512	-7.351145038167939	17.17557251908397	0.249755859375	-0.168701171875	0.113037109375
889	0.48091603053435117	1.0229007633587786	-1.3206106870229009	0.0517578125	-0.736083984375	0.3154296875
890	5.679389312977099	2.450381679389313	5.068702290076335	-0.121337890625	-0.12744140625	-0.623291015625
891	7.412213740458015	4.267175572519084	-4.7251908396946565	-0.428955078125	-0.48388671875	0.1640625
892	-10.442748091603054	-4.061068702290076	6.122137404580153	-0.154296875	-0.802978515625	0.384521484375
893	-30.763358778625953	-17.229007633587788	14.923664122137405	-0.56005859375	-0.51611328125	0.478271484375
894	7.793893129770993	11.854961832061068	-12.229007633587786	-0.09765625	-0.45703125	-0.318115234375
895	-11.572519083969466	-6.038167938931298	3.9236641221374047	0.021240234375	-1.95166015625	0.193603515625
896	22.80916030534351	-3.427480916030534	-22.52671755725191	-0.111572265625	-1.984375	-0.055908203125
897	11.595419847328245	-1.0	-10.801526717557252	0.417724609375	-1.376953125	-0.187255859375
898	-9.732824427480915	-5.3816793893129775	-2.50381679389313	-1.0234375	-1.986572265625	0.43896484375
899	7.458015267175573	-13.603053435114504	-11.030534351145038	-0.173583984375	-0.46435546875	1.193359375
900	4.763358778625954	0.29770992366412213	5.7251908396946565	-0.135986328125	-0.611083984375	0.655517578125
901	-7.534351145038168	5.33587786259542	7.351145038167939	0.012451171875	-0.608154296875	0.51611328125
902	-17.778625954198475	4.076335877862595	10.129770992366412	-0.6845703125	-0.782470703125	1.749267578125
903	-6.816793893129771	8.992366412213741	6.1679389312977095	-0.016845703125	0.003173828125	-0.56298828125
904	-13.374045801526718	-12.748091603053435	-3.7251908396946565	-0.3203125	-0.384521484375	0.30615234375
905	9.381679389312977	9.954198473282442	-22.885496183206108	-1.953125	2.0	-0.248779296875
906	-0.40458015267175573	-7.3816793893129775	-1.5801526717557253	-0.028076171875	-0.37744140625	0.1328125
907	-4.305343511450381	11.320610687022901	-10.877862595419847	-0.7587890625	0.43017578125	-0.14208984375
908	9.786259541984732	1.1908396946564885	10.702290076335878	-0.57275390625	2.0	0.38232421875
909	9.648854961832061	-10.969465648854962	15.099236641221374	0.312255859375	-1.88427734375	0.70849609375
910	2.9618320610687023	4.633587786259542	-14.687022900763358	0.19384765625	2.0	0.583984375
911	-1.2748091603053435	5.473282442748092	-0.21374045801526717	-0.12890625	-0.994384765625	0.09228515625
912	0.5725190839694656	-1.916030534351145	7.030534351145038	-0.008544921875	-0.7373046875	0.458984375
913	-14.297709923664122	1.9312977099236641	40.64885496183206	-0.297607421875	0.689453125	-0.38330078125
914	-12.091603053435115	7.6106870229007635	-5.442748091603053	0.0400390625	-1.37353515625	1.462890625
915	25.862595419847327	-1.0687022900763359	-4.206106870229007	0.948486328125	2.0	0.118408203125
916	-9.045801526717558	-8.98473282442748	21.099236641221374	-1.97265625	-0.6494140625	0.006103515625
917	0.3511450381679389	0.3969465648854962	0.3435114503816794	-0.268798828125	-0.8798828125	-0.042236328125
918	-0.8625954198473282	1.251908396946565	-1.1526717557251909	-0.183349609375	-0.2236328125	-0.347412109375
919	7.847328244274809	-2.648854961832061	8.51908396946565	0.268798828125	0.13330078125	-0.14013671875
920	7.442748091603053	-1.5419847328244274	-10.801526717557252	-0.77587890625	-0.386474609375	0.876953125
921	11.564885496183207	-8.15267175572519	8.183206106870228	0.405029296875	-0.8779296875	0.46044921875
922	13.312977099236642	-4.145038167938932	0.46564885496183206	0.76416015625	2.0	1.017578125
923	3.7709923664122136	-9.15267175572519	0.015267175572519083	-0.4873046875	-1.580810546875	0.82666015625
924	-3.6030534351145036	-3.9923664122137406	5.137404580152672	-0.075439453125	-0.80419921875	-0.057373046875
925	-9.122137404580153	1.183206106870229	-2.0763358778625953	-1.069580078125	2.0	0.5732421875
926	18.389312977099237	-10.801526717557252	-23.46564885496183	0.00439453125	-1.417236328125	0.58203125
927	-9.49618320610687	12.541984732824428	-9.061068702290076	0.074462890625	-1.557861328125	-0.58642578125
928	-9.84732824427481	-4.404580152671755	1.2595419847328244	-0.19287109375	-0.512939453125	0.127685546875
929	0.916030534351145	-0.061068702290076333	1.717557251908397	-0.93115234375	-1.69677734375	0.159423828125
930	-7.694656488549619	-4.229007633587786	2.5343511450381677	-0.928466796875	-1.72802734375	0.730712890625
931	4.488549618320611	1.6412213740458015	13.534351145038167	-0.41796875	-1.38134765625	0.050537109375
932	13.564885496183207	6.564885496183206	-6.480916030534351	1.9677734375	0.603515625	-0.972412109375
933	-13.992366412213741	9.954198473282442	-13.877862595419847	-0.59814453125	-0.886474609375	0.8037109375
934	-6.091603053435114	10.816793893129772	12.0	-0.4873046875	-1.394775390625	-0.444580078125
935	10.717557251908397	-0.07633587786259542	-6.267175572519084	-0.04931640625	-0.55517578125	-0.2900390625
936	-3.3893129770992365	-0.20610687022900764	0.2824427480916031	-0.00927734375	-1.145751953125	0.27880859375
937	5.0	7.358778625954199	7.427480916030534	-0.064697265625	-1.06689453125	-0.0361328125
938	3.6717557251908395	6.984732824427481	13.435114503816793	-0.079345703125	-0.028076171875	-0.971923828125
939	-11.053435114503817	-13.580152671755725	5.8320610687022905	-0.329345703125	-0.9228515625	-0.447998046875
940	9.931297709923664	-13.961832061068701	-12.381679389312977	-0.533447265625	-1.25	-1.117919921875
941	10.694656488549619	-0.9236641221374046	-6.908396946564886	-0.64208984375	-1.989990234375	-0.03515625
942	5.809160305343512	2.0229007633587788	-3.954198473282443	-0.218505859375	-0.756591796875	-0.652587890625
943	0.7404580152671756	-8.49618320610687	1.1145038167938932	-0.157958984375	-0.949462890625	0.007080078125
944	7.267175572519084	-3.954198473282443	9.099236641221374	-0.579345703125	-0.330322265625	0.1015625
945	17.64885496183206	-10.541984732824428	-16.84732824427481	0.05712890625	-0.345703125	0.091796875
946	4.267175572519084	10.67175572519084	11.793893129770993	1.38427734375	2.0	-0.00146484375
947	-5.580152671755725	-25.198473282442748	-12.778625954198473	-0.009521484375	0.259521484375	-0.462158203125
948	6.900763358778626	9.50381679389313	7.816793893129771	0.078369140625	-0.263671875	-0.154052734375
949	0.7862595419847328	0.5801526717557252	13.954198473282442	-0.2890625	-1.405029296875	1.533203125
950	5.938931297709924	-8.946564885496183	8.229007633587786	0.0361328125	-0.137939453125	-0.72265625
951	-13.16030534351145	-11.679389312977099	16.48854961832061	0.242431640625	0.26611328125	-0.4921875
952	10.381679389312977	2.717557251908397	10.366412213740459	-0.179931640625	-0.932861328125	-0.175048828125
953	6.190839694656488	4.801526717557252	15.48091603053435	-0.51513671875	-0.17431640625	-0.216064453125
954	6.183206106870229	6.282442748091603	-12.511450381679388	-0.8916015625	-1.203369140625	0.125732421875
955	-4.587786259541985	-4.786259541984733	6.99236641221374	-0.173828125	-1.3740234375	0.082275390625
956	27.213740458015266	-15.977099236641221	12.793893129770993	-0.22509765625	0.423095703125	0.457275390625
957	-20.427480916030536	12.259541984732824	14.030534351145038	1.80322265625	-1.1875	1.315185546875
958	-16.977099236641223	4.2748091603053435	14.977099236641221	-0.41943359375	-1.940185546875	-0.13818359375
959	-15.969465648854962	-11.213740458015268	-1.3435114503816794	0.421875	-0.263671875	0.60107421875
960	-2.9389312977099236	0.16793893129770993	3.7557251908396947	-0.18115234375	-0.953125	0.2763671875
961	-4.595419847328245	0.6717557251908397	3.1374045801526718	-0.35009765625	-0.466552734375	0.441650390625
962	4.091603053435114	15.877862595419847	20.732824427480917	0.0849609375	-0.20703125	-0.069091796875
963	-14.244274809160306	16.519083969465647	13.236641221374045	-0.92138671875	2.0	1.036865234375
964	12.595419847328245	12.229007633587786	1.9923664122137406	-0.765869140625	0.029052734375	-1.224609375
965	-16.82442748091603	-18.47328244274809	9.763358778625955	-1.157958984375	-0.24853515625	0.757080078125
966	1.633587786259542	0.08396946564885496	-2.6717557251908395	-0.3203125	-1.173095703125	-0.16015625
967	-3.068702290076336	-4.8396946564885495	-2.099236641221374	-0.50537109375	0.1357421875	0.056884765625
968	-10.740458015267176	-2.7022900763358777	-6.969465648854962	-0.76708984375	-0.107177734375	1.164306640625
969	7.580152671755725	-4.190839694656488	13.076335877862595	0.208251953125	-0.5048828125	0.215087890625
970	6.435114503816794	-5.587786259541985	1.6946564885496183	2.0	-0.30810546875	1.83837890625
971	-2.9083969465648853	-2.4656488549618323	0.8320610687022901	-0.4970703125	-1.318603515625	0.94677734375
972	-12.954198473282442	0.03816793893129771	13.045801526717558	0.067626953125	-0.25146484375	0.696533203125
973	-0.22900763358778625	-9.679389312977099	2.9389312977099236	-0.012939453125	-0.688720703125	-0.185302734375
974	10.938931297709924	1.0763358778625953	-2.595419847328244	-0.299072265625	0.025634765625	-0.078125
975	-10.198473282442748	-17.587786259541986	-4.366412213740458	-0.826171875	-1.457275390625	0.1455078125
976	8.007633587786259	11.687022900763358	-4.9465648854961835	-0.34765625	-0.43115234375	-0.28076171875
977	-4.641221374045801	1.083969465648855	1.5725190839694656	-0.644775390625	-1.787109375	0.453125
978	2.2061068702290076	5.977099236641221	-1.9694656488549618	-0.6708984375	2.0	0.061767578125
979	3.5114503816793894	-11.938931297709924	2.7938931297709924	-0.479736328125	-0.138671875	0.826171875
980	-2.0229007633587788	-0.648854961832061	6.404580152671755	0.869384765625	0.6669921875	0.216064453125
981	7.511450381679389	-5.480916030534351	15.679389312977099	0.0234375	0.307861328125	0.274658203125
982	-7.641221374045801	-9.938931297709924	1.6412213740458015	-0.2919921875	-0.541748046875	0.27587890625
983	0.21374045801526717	-0.6870229007633588	-0.5648854961832062	-0.133544921875	-0.969970703125	0.20458984375
984	20.17557251908397	-6.786259541984733	-2.1908396946564888	0.32958984375	-1.62890625	-0.444091796875
985	4.908396946564886	0.2900763358778626	-2.618320610687023	-0.39111328125	-1.9990234375	0.402587890625
986	-2.381679389312977	6.366412213740458	-10.053435114503817	2.0	2.0	0.25830078125
987	12.946564885496183	1.4045801526717556	6.0534351145038165	-0.019775390625	-0.479736328125	0.669677734375
988	18.27480916030534	13.114503816793894	-14.725190839694656	-1.1220703125	-0.514892578125	-0.268310546875
989	-0.07633587786259542	-0.8778625954198473	5.198473282442748	-0.54052734375	-1.994873046875	0.707763671875
990	23.396946564885496	-10.83206106870229	-15.229007633587786	-0.23046875	-1.67529296875	0.467529296875
991	-9.374045801526718	-0.9770992366412213	-4.343511450381679	0.751953125	-0.981201171875	0.6796875
992	15.099236641221374	-3.381679389312977	-15.48091603053435	1.076171875	0.10595703125	-0.240478515625
993	-5.7251908396946565	-12.045801526717558	1.1297709923664123	0.47119140625	-1.414306640625	0.509765625
994	13.610687022900763	11.13740458015267	13.610687022900763	0.830810546875	-0.28759765625	-0.14404296875
995	-1.4809160305343512	-7.351145038167939	-4.229007633587786	-0.160888671875	-0.664794921875	0.37744140625
996	11.183206106870228	-15.648854961832061	-28.572519083969464	0.260986328125	-0.310791015625	-0.085205078125
997	18.282442748091604	-8.251908396946565	6.526717557251908	-0.32568359375	0.1767578125	-0.4482421875
998	4.068702290076335	-1.702290076335878	-10.022900763358779	-0.505615234375	2.0	0.576904296875
999	-23.3206106870229	-36.36641221374046	-1.4809160305343512	-0.386474609375	-0.39794921875	0.112060546875
1000	-0.2824427480916031	0.12213740458015267	-1.5190839694656488	-0.407958984375	-0.705810546875	-0.04345703125
1001	-0.8320610687022901	-5.267175572519084	0.8854961832061069	-0.21484375	2.0	0.24267578125
1002	-21.80916030534351	18.450381679389313	17.770992366412212	-0.97607421875	0.54931640625	0.591064453125
1003	2.3740458015267176	3.931297709923664	12.335877862595419	-0.377197265625	-1.53076171875	0.5009765625
1004	-2.1374045801526718	3.6946564885496183	17.091603053435115	0.18017578125	0.064208984375	0.775146484375
1005	-5.687022900763359	0.8625954198473282	-2.5114503816793894	-1.069091796875	-0.2646484375	0.6708984375
1006	-1.1908396946564885	1.1984732824427482	0.16030534351145037	0.02880859375	-1.21923828125	0.384765625
1007	-10.374045801526718	1.786259541984733	12.16793893129771	-0.182373046875	0.177001953125	-0.570556640625
1008	1.2366412213740459	9.748091603053435	0.45038167938931295	0.037841796875	-0.4873046875	-0.428466796875
1009	-11.969465648854962	3.7022900763358777	2.2748091603053435	-0.514892578125	-1.018310546875	1.23431396484375
1010	-8.366412213740459	-4.068702290076335	1.9694656488549618	-0.102783203125	-0.253662109375	-0.08740234375
1011	1.3511450381679388	-2.6793893129770994	-3.5343511450381677	-0.31298828125	-0.776123046875	-0.073974609375
1012	2.6412213740458017	4.33587786259542	-8.931297709923664	-0.514892578125	-0.699462890625	-0.024169921875
1013	0.9923664122137404	-0.7709923664122137	7.633587786259542	-0.392333984375	-1.1708984375	0.160400390625
1014	-4.175572519083969	1.1908396946564885	18.114503816793892	-0.418701171875	0.292236328125	0.7568359375
1015	4.213740458015267	-8.946564885496183	-16.87786259541985	1.90380859375	0.7783203125	0.228759765625
1016	-18.770992366412212	-2.8702290076335877	3.8091603053435112	0.1787109375	-1.56787109375	-0.1708984375
1017	4.541984732824427	-2.6717557251908395	3.427480916030534	0.054931640625	-0.424072265625	-0.013916015625
1018	-1.9541984732824427	1.6106870229007633	7.442748091603053	0.0615234375	-0.744873046875	0.10693359375
1019	4.0	-8.297709923664122	-1.9083969465648856	-0.095947265625	-0.322998046875	-0.164794921875
1020	0.8931297709923665	-5.038167938931298	4.809160305343512	-0.862060546875	-1.546875	0.78759765625
1021	-22.82442748091603	-5.67175572519084	7.244274809160306	-0.017578125	0.20458984375	0.794921875
1022	-13.595419847328245	0.5343511450381679	23.27480916030534	-0.1962890625	-0.065673828125	-0.754638671875
1023	63.70229007633588	10.557251908396946	-32.06106870229008	-0.29638671875	2.0	0.47900390625
1024	-28.46564885496183	2.3893129770992365	11.541984732824428	0.212646484375	2.0	-0.12548828125
1025	2.6793893129770994	-5.900763358778626	0.4351145038167939	-0.83251953125	-1.76318359375	0.409423828125
1026	-7.893129770992366	-7.061068702290076	19.770992366412212	-0.3876953125	0.574462890625	0.28125
1027	-1.4885496183206106	7.1603053435114505	9.877862595419847	0.012451171875	-0.778564453125	0.466552734375
1028	0.6641221374045801	-10.717557251908397	-6.66412213740458	0.162353515625	-1.80126953125	-1.00439453125
1029	-0.37404580152671757	-2.4732824427480917	0.21374045801526717	0.18896484375	-0.977783203125	0.256591796875
1030	-6.893129770992366	3.450381679389313	24.282442748091604	-0.580810546875	0.00537109375	1.991943359375
1031	-1.6259541984732824	0.29770992366412213	-3.045801526717557	-0.503662109375	-1.802490234375	0.07568359375
1032	-3.435114503816794	-6.534351145038168	12.748091603053435	-0.056884765625	-0.01318359375	-0.22802734375
1033	2.351145038167939	-3.4122137404580153	3.5343511450381677	-1.265380859375	-1.397216796875	0.107666015625
1034	9.732824427480915	10.603053435114504	-16.083969465648856	-1.9921875	-1.013671875	-0.16259765625
1035	-8.251908396946565	1.1526717557251909	-6.1603053435114505	-0.141845703125	2.0	0.797607421875
1036	2.0229007633587788	1.7557251908396947	-1.6946564885496183	0.502197265625	-1.638427734375	-0.20361328125
1037	-6.206106870229007	2.946564885496183	-3.0229007633587788	-0.643310546875	-1.916015625	0.235595703125
1038	-1.8778625954198473	-2.9160305343511452	0.09923664122137404	-0.388427734375	-1.609130859375	0.602783203125
1039	-1.83206106870229	-4.458015267175573	-2.8473282442748094	-0.234130859375	-0.719970703125	0.072021484375
1040	1.0381679389312977	0.3282442748091603	2.351145038167939	0.82421875	0.72119140625	-0.341064453125
1041	2.7938931297709924	-7.152671755725191	9.358778625954198	0.147216796875	0.0029296875	0.162353515625
1042	2.3740458015267176	2.1297709923664123	1.9694656488549618	-0.024169921875	-0.40478515625	0.1181640625
1043	-10.099236641221374	4.137404580152672	2.236641221374046	-0.276123046875	-1.9990234375	-0.062255859375
1044	10.091603053435115	3.213740458015267	-1.9083969465648856	-0.11767578125	-0.7001953125	-0.106689453125
1045	-27.786259541984734	-16.328244274809162	-8.763358778625955	-0.78857421875	2.0	0.6904296875
